uLabel,h1,h2,h3,h4,h5,ax,ay,az,uL dev_yaw,uL dev_pitch,uL dev_roll,uL Timestamp,uMyo1,uM1 d1,uM1 d2,uM1 d3,uM1 d4,uM1 d5,uM1 d6,uM1 d7,uM1 d8,uM1 ds1,uM1 ds2,uM1 ds3,uM1 ds4,uM1 ax,uM1 ay,uM1 az,uM1 dev_yaw,uM1 dev_pitch,uM1 dev_roll,uM1 Timestamp,uMyo2,uM2 d1,uM2 d2,uM2 d3,uM2 d4,uM2 d5,uM2 d6,uM2 d7,uM2 d8,uM2 ds1,uM2 ds2,uM2 ds3,uM2 ds4,uM2 ax,uM2 ay,uM2 az,uM2 dev_yaw,uM2 dev_pitch,uM2 dev_roll,uM2 Timestamp,uMyo3,uM3 d1,uM3 d2,uM3 d3,uM3 d4,uM3 d5,uM3 d6,uM3 d7,uM3 d8,uM3 ds1,uM3 ds2,uM3 ds3,uM3 ds4,uM3 ax,uM3 ay,uM3 az,uM3 dev_yaw,uM3 dev_pitch,uM3 dev_roll,uM3 Timestamp,uMyo4,uM4 d1,uM4 d2,uM4 d3,uM4 d4,uM4 d5,uM4 d6,uM4 d7,uM4 d8,uM4 ds1,uM4 ds2,uM4 ds3,uM4 ds4,uM4 ax,uM4 ay,uM4 az,uM4 dev_yaw,uM4 dev_pitch,uM4 dev_roll,uM4 Timestamp
1,31148,30216,29868,15308,31016,4099,16790,6231,-1854,0,-1870,0.026583433151245117,0,18481,18457,18442,18480,18537,18679,18704,18618,17326,529,133,8,-1202,17051,-300,0,0,0,0.026583433151245117,1,18250,18292,18288,18292,18290,18301,18286,18248,15175,81,62,22,5898,15702,-1942,0,0,0,0.026583433151245117,2,12292,12248,12306,12332,12346,12324,12243,12226,32780,201,90,85,6794,-16403,4047,0,0,0,0.026583433151245117
1,30976,30292,29852,15292,31116,6927,15530,4640,-1866,0,-1882,0.03997087478637695,0,18347,18381,18445,18472,18532,18643,18528,18401,16677,473,177,72,-1650,17843,-1210,0,0,0,0.03997087478637695,1,18330,18344,18338,18334,18360,18335,18268,18252,15489,157,125,22,6281,15606,-1863,0,0,0,0.03997087478637695,2,12237,12269,12220,12171,12203,12261,12321,12311,32456,238,111,71,5766,-16370,3305,0,0,0,0.03997087478637695
1,30976,30292,29852,15292,31116,6927,15530,4640,-1866,0,-1882,0.05258440971374512,0,18520,18387,18264,18241,18267,18350,18267,18374,15598,379,283,147,-202,17452,-1405,0,0,0,0.05258440971374512,1,18313,18362,18330,18272,18231,18168,18074,18084,14762,533,223,79,7515,15221,-1491,0,0,0,0.05258440971374512,2,12237,12269,12220,12171,12203,12261,12321,12311,32456,238,111,71,5766,-16370,3305,0,0,0,0.05258440971374512
1,31032,30296,29972,15272,31016,6323,15407,6089,-1876,0,-1889,0.06649112701416016,0,18083,18056,18041,18101,18187,18202,18252,18265,14115,439,110,117,-974,17182,-687,0,0,0,0.06649112701416016,1,18144,18099,18093,18137,18237,18310,18340,18324,14612,539,73,83,6661,15998,-2006,0,0,0,0.06649112701416016,2,12249,12196,12181,12161,12232,12251,12240,12188,32162,117,114,36,4852,-16582,3786,0,0,0,0.06649112701416016
1,31068,30308,30064,15272,30988,5023,15466,7255,-1882,0,-1891,0.08358597755432129,0,18107,18117,18121,18000,17944,17924,17923,17964,13028,452,77,63,-1312,16853,-688,0,0,0,0.08358597755432129,1,18064,18106,18125,18171,18130,17986,18070,18008,13588,272,87,149,6385,15631,-1928,0,0,0,0.08358597755432129,2,12127,12169,12161,12191,12117,12109,12141,12206,31684,81,132,44,4942,-16298,4287,0,0,0,0.08358597755432129
1,31068,30256,30032,15300,30948,5232,15172,7020,-1887,0,-1892,0.09851646423339844,0,17860,17873,17883,17895,17828,17788,17801,17823,11679,197,57,36,-1919,17064,-879,0,0,0,0.09851646423339844,1,18154,18172,18174,18133,18094,18125,18156,18162,14098,117,82,8,6134,15459,-1802,0,0,0,0.09851646423339844,2,12128,12146,12152,12117,12121,12123,12141,12169,31561,60,47,55,5396,-16587,3888,0,0,0,0.09851646423339844
1,31092,30384,30140,15216,30968,4337,16328,6447,-1889,0,-1892,0.1275005340576172,0,17800,17809,17791,17755,17743,17696,17725,17739,10986,201,29,27,-1715,16834,-705,0,0,0,0.1275005340576172,1,17956,17976,17988,18032,18088,18006,17936,17888,12798,287,135,29,6182,15445,-2231,0,0,0,0.1275005340576172,2,11997,12017,12082,12130,12081,12055,11972,11987,30784,280,51,56,5609,-16211,4404,0,0,0,0.1275005340576172
1,31128,30304,30176,20948,30968,3100,18451,9242,-1895,0,-1893,0.15845704078674316,0,17542,17541,17559,17617,17589,17560,17447,17375,9158,355,165,144,-1584,15670,-39,0,0,0,0.15845704078674316,1,18035,17985,17899,17910,17943,17952,17935,17956,12543,154,160,44,5975,14962,-2987,0,0,0,0.15845704078674316,2,12014,11978,11977,12000,12053,12034,12004,11954,30478,116,103,38,3067,-15810,4238,0,0,0,0.15845704078674316
1,31212,30408,30244,28428,30984,4949,14413,7230,-1901,0,-1906,0.19058632850646973,0,17410,17403,17449,17485,17503,17533,17533,17514,8758,256,93,35,-896,15849,28,0,0,0,0.19058632850646973,1,17983,18041,18073,18021,18002,18045,18092,18058,13243,48,180,43,5976,16299,-2779,0,0,0,0.19058632850646973,2,12001,12069,12012,12066,12064,12068,12101,12105,30950,120,58,110,3663,-16714,3532,0,0,0,0.19058632850646973
1,31348,30496,30380,29076,30984,5839,12704,5536,-1911,0,-1921,0.22598862648010254,0,17496,17534,17480,17508,17571,17691,17755,17757,9720,562,172,140,-1567,15974,-1144,0,0,0,0.22598862648010254,1,18059,18128,18109,18006,17982,17941,17957,18018,13128,351,51,69,7154,14153,-1532,0,0,0,0.22598862648010254,2,12244,12236,12221,12198,12187,12157,12146,12207,32060,172,65,26,5488,-15106,3473,0,0,0,0.22598862648010254
1,31344,30508,30392,29076,30992,3781,14954,7201,-1925,0,-1932,0.25983238220214844,0,17516,17450,17559,17539,17604,17676,17795,17817,9884,594,328,173,-1423,15285,-244,0,0,0,0.25983238220214844,1,17872,17947,18050,18042,18050,18009,17967,17902,12767,349,95,44,6249,14269,-2479,0,0,0,0.25983238220214844,2,12254,12204,12228,12371,12411,12385,12325,12297,32939,378,137,31,3433,-15194,4936,0,0,0,0.25983238220214844
1,31320,30512,30340,29144,30908,6302,8771,6384,-1933,0,-1940,0.28651905059814453,0,18019,17956,17889,18031,17824,17838,17902,17907,12294,247,153,271,-1368,16097,-770,0,0,0,0.28651905059814453,1,18145,18278,18410,18413,18296,18171,18129,18106,14876,643,120,15,6321,14153,-1971,0,0,0,0.28651905059814453,2,12336,12328,12377,12449,12466,12511,12528,12563,34022,402,201,100,4964,-15404,3579,0,0,0,0.28651905059814453
1,31356,30496,30352,28756,30488,8199,12007,3687,-1958,0,-1959,0.31957173347473145,0,18115,18102,18124,18107,18067,18062,18067,18077,13649,119,21,41,-1349,15748,-1163,0,0,0,0.31957173347473145,1,18046,17939,17915,17974,17943,17948,18004,18061,12758,222,163,52,6428,14543,-1758,0,0,0,0.31957173347473145,2,12647,12638,12590,12484,12463,12482,12476,12480,34723,369,162,76,4910,-15697,3785,0,0,0,0.31957173347473145
1,31324,30472,30364,28496,29296,8968,13234,3149,-1964,0,-1958,0.3516082763671875,0,18173,18202,18224,18230,18205,17993,18053,18012,14020,474,111,133,-575,16263,-147,0,0,0,0.3516082763671875,1,17717,17747,17806,17772,17679,17541,17608,17681,10479,425,165,44,6658,15052,-2033,0,0,0,0.3516082763671875,2,12412,12453,12492,12494,12421,12304,12335,12386,33761,339,123,45,4059,-15724,3737,0,0,0,0.3516082763671875
1,31352,30384,30312,28452,28576,6861,14644,8233,-1963,0,-1956,0.38249874114990234,0,18103,18102,18127,18272,18335,18311,18060,17987,14225,593,294,118,-1183,16403,-8,0,0,0,0.38249874114990234,1,17460,17538,17653,17791,17837,17811,17753,17464,10235,803,143,146,5894,15048,-2200,0,0,0,0.38249874114990234,2,12210,12266,12300,12331,12341,12366,12250,12198,32726,304,103,43,4538,-15834,3509,0,0,0,0.38249874114990234
1,31336,30424,30304,28396,28512,6467,14139,6463,-1958,0,-1952,0.4129798412322998,0,18144,18113,18053,18072,18102,18097,18080,18078,13667,60,127,43,-1114,16855,-639,0,0,0,0.4129798412322998,1,17668,17680,17690,17661,17429,17431,17499,17544,9530,559,131,160,6225,15185,-1988,0,0,0,0.4129798412322998,2,12204,12235,12133,12141,12151,12123,12073,12145,31668,191,165,33,5255,-15971,3515,0,0,0,0.4129798412322998
1,31288,30424,30296,28348,28552,5641,13805,7796,-1958,0,-1947,0.44065165519714355,0,18084,18074,18054,18043,18084,18172,18225,18253,13917,396,121,91,-1316,16271,-579,0,0,0,0.44065165519714355,1,17508,17465,17531,17610,17680,17646,17609,17650,9627,358,156,106,6063,14867,-2285,0,0,0,0.44065165519714355,2,12023,12025,12008,11982,11954,11990,12065,12072,30583,184,103,26,4844,-15644,3908,0,0,0,0.44065165519714355
1,31348,30424,30344,28324,29832,-1085,13304,13738,-1970,0,-1956,0.47275805473327637,0,18065,18130,18042,18033,18029,18029,18079,18208,13543,247,86,159,-1417,16054,-666,0,0,0,0.47275805473327637,1,17596,17580,17596,17606,17611,17528,17468,17494,9407,250,143,29,5832,14975,-2570,0,0,0,0.47275805473327637,2,11992,12015,12056,12023,11981,11929,11894,11929,30283,289,24,38,4475,-15293,4398,0,0,0,0.47275805473327637
1,31320,30356,30284,28452,30724,2798,14279,3189,-1981,0,-1968,0.5046491622924805,0,18193,18048,18114,18117,18121,18195,18233,18226,14175,303,105,116,-150,17042,-936,0,0,0,0.5046491622924805,1,17694,17627,17592,17715,17766,17779,17765,17719,10585,333,106,70,6879,14693,-2151,0,0,0,0.5046491622924805,2,12042,12000,11998,12057,12112,12088,12057,12009,30827,187,101,40,4698,-15862,3971,0,0,0,0.5046491622924805
1,31304,30408,30324,28548,30908,2716,14909,6325,-1979,0,-1963,0.5383708477020264,0,18371,18339,18228,18195,18150,18088,18062,18084,14445,529,274,151,-504,16285,-740,0,0,0,0.5383708477020264,1,18046,18017,18040,18054,18120,18186,18208,18203,13802,402,98,82,5653,14782,-2627,0,0,0,0.5383708477020264,2,12297,12325,12182,12143,12126,12222,12294,12325,32378,408,95,63,4043,-15738,4979,0,0,0,0.5383708477020264
1,31332,30464,30412,26904,30860,4699,14550,5541,-1985,0,-1969,0.5709946155548096,0,18391,18311,18288,18283,18293,18332,18265,18259,15350,70,165,131,-716,15818,-699,0,0,0,0.5709946155548096,1,18479,18528,18554,18565,18521,18497,18543,18550,17165,53,132,57,6306,14686,-2394,0,0,0,0.5709946155548096,2,12437,12492,12497,12567,12428,12329,12346,12373,33932,403,121,106,5112,-15415,3320,0,0,0,0.5709946155548096
1,31312,30460,30528,17704,30872,4174,14206,5637,-1994,0,-1975,0.6039383411407471,0,18146,18185,18240,18233,18235,18183,18157,18091,14398,263,46,21,-377,16101,311,0,0,0,0.6039383411407471,1,18612,18555,18536,18522,18485,18506,18507,18525,17176,174,55,90,6172,14769,-1298,0,0,0,0.6039383411407471,2,12399,12415,12452,12517,12507,12332,12355,12348,33789,322,154,93,3823,-16178,3074,0,0,0,0.6039383411407471
1,31368,30348,30456,15244,30772,2707,16424,7304,-1990,0,-1965,0.6365253925323486,0,17678,17810,18088,18247,18225,18204,18233,18259,13672,924,645,311,-502,16207,-67,0,0,0,0.6365253925323486,1,18696,18727,18648,18626,18675,18739,18887,18941,18867,525,192,193,6603,15128,-1611,0,0,0,0.6365253925323486,2,12342,12382,12418,12449,12512,12578,12582,12394,34121,436,187,64,2758,-16064,4882,0,0,0,0.6365253925323486
1,31280,30392,30460,15208,30844,5125,14418,5770,-1985,0,-1961,0.668787956237793,0,18021,18004,18010,17940,17743,17736,17865,17929,12176,573,170,109,-1206,15975,-368,0,0,0,0.668787956237793,1,18788,18746,18711,18695,18658,18632,18616,18620,18394,277,134,109,5535,14837,-1339,0,0,0,0.668787956237793,2,12466,12448,12526,12573,12523,12536,12629,12684,34849,247,319,82,4976,-15587,3347,0,0,0,0.668787956237793
1,31336,30424,30368,15244,30780,6523,14305,5014,-1994,0,-1964,0.703589916229248,0,17619,17495,17461,17508,17556,17544,17463,17464,9038,6,259,128,-1538,16095,-29,0,0,0,0.703589916229248,1,18460,18432,18387,18317,18351,18354,18288,18316,15833,225,204,69,5337,15344,-1930,0,0,0,0.703589916229248,2,12342,12351,12266,12274,12309,12289,12281,12243,32819,74,161,81,4696,-15465,3396,0,0,0,0.703589916229248
1,31288,30392,30188,15236,30780,6037,14929,5440,-1996,0,-1958,0.7356681823730469,0,17290,17304,17232,17135,17121,17124,17106,17102,6342,388,204,69,-1422,16359,-469,0,0,0,0.7356681823730469,1,18026,18075,18067,17995,17927,17910,17978,18009,12915,298,93,32,5671,14989,-2109,0,0,0,0.7356681823730469,2,12111,12133,12123,12094,11986,11976,12018,12053,30958,320,58,55,4371,-15959,3995,0,0,0,0.7356681823730469
1,31392,30432,30068,15288,30800,4464,15188,6663,-1981,0,-1940,0.7695498466491699,0,17047,17118,17101,17059,16998,16892,16869,16952,4964,486,75,35,-2123,16077,101,0,0,0,0.7695498466491699,1,17805,17833,17908,17931,17917,17786,17692,17689,11489,489,122,28,4971,15184,-2983,0,0,0,0.7695498466491699,2,11944,12006,12054,12059,12021,11922,11837,11814,30121,488,92,40,4285,-15528,4169,0,0,0,0.7695498466491699
1,31392,30568,29820,27452,30840,5661,14548,6429,-1972,0,-1930,0.810021162033081,0,17069,17012,17112,17203,17255,17300,17214,17191,6284,496,82,96,328,16759,640,0,0,0,0.810021162033081,1,17877,17850,17882,17907,17922,17930,17946,17832,12074,168,50,88,6254,14667,-1865,0,0,0,0.810021162033081,2,11973,11920,11931,11982,12008,11954,11964,11980,30175,82,123,14,3846,-15998,3493,0,0,0,0.810021162033081
1,31360,30452,29548,28192,30908,4626,15112,6095,-1968,0,-1925,0.8424773216247559,0,17566,17537,17564,17621,17630,17567,17545,17473,9431,215,87,89,-1446,16597,162,0,0,0,0.8424773216247559,1,17843,17897,17918,17851,17788,17779,17812,17796,11612,249,103,19,5875,15313,-2398,0,0,0,0.8424773216247559,2,12188,12090,12139,12202,12173,12155,12185,12212,31808,101,173,54,4832,-16115,3590,0,0,0,0.8424773216247559
1,31408,30592,28920,28416,30956,3600,14717,6179,-1959,0,-1915,0.875981330871582,0,17674,17759,17760,17698,17631,17656,17653,17624,10383,240,142,28,-901,16454,811,0,0,0,0.875981330871582,1,17933,17937,17826,17789,17793,17770,17766,17693,11435,310,261,154,5487,15811,-2038,0,0,0,0.875981330871582,2,12333,12387,12331,12222,12194,12173,12152,12138,32394,452,204,56,2693,-16867,4330,0,0,0,0.875981330871582
1,31388,30488,21448,28496,30820,5543,15122,3499,-1929,0,-1888,0.9137637615203857,0,18129,18172,18071,18023,17969,17852,17875,17897,12916,591,184,121,774,17435,572,0,0,0,0.9137637615203857,1,17798,17938,17919,17874,17759,17785,17725,17673,11399,444,196,92,6400,14885,-1569,0,0,0,0.9137637615203857,2,12354,12331,12371,12353,12196,12217,12288,12248,32822,289,121,167,4033,-16165,2798,0,0,0,0.9137637615203857
1,31424,30308,15676,28728,30868,2209,13941,10601,-1917,0,-1869,0.9472413063049316,0,18264,18188,18098,18113,18115,18103,18089,18158,14056,243,193,60,-2244,15273,380,0,0,0,0.9472413063049316,1,17802,17806,17772,17813,17819,17792,17759,17763,11254,72,92,33,4543,15385,-3070,0,0,0,0.9472413063049316,2,12256,12307,12342,12355,12321,12327,12315,12318,33005,112,89,28,2707,-15569,3991,0,0,0,0.9472413063049316
1,31532,30112,15708,28972,30892,3798,16227,6355,-1913,0,-1864,0.9787704944610596,0,18401,18377,18296,18203,18118,18135,18168,18173,14799,538,146,147,-580,16411,147,0,0,0,0.9787704944610596,1,17743,17774,17750,17680,17653,17714,17702,17705,10649,166,117,37,6321,15147,-2367,0,0,0,0.9787704944610596,2,12226,12153,12128,12157,12181,12183,12097,12158,31747,26,183,84,4051,-15823,3963,0,0,0,0.9787704944610596
1,31580,29932,15672,29184,30916,3939,15373,4854,-1903,0,-1856,1.011021614074707,0,18235,18284,18312,18323,18317,18272,18273,18350,15294,61,121,120,-992,15790,365,0,0,0,1.011021614074707,1,17701,17755,17794,17811,17822,17759,17733,17769,11072,176,66,94,5773,15199,-2539,0,0,0,1.011021614074707,2,12165,12198,12129,12036,11995,12062,12113,12070,31232,303,174,75,4302,-16352,3645,0,0,0,1.011021614074707
1,31672,29568,18132,29272,30900,2235,14566,8667,-1893,0,-1843,1.044466495513916,0,18342,18343,18368,18420,18437,18431,18407,18340,16016,218,14,40,-1807,15212,502,0,0,0,1.044466495513916,1,17907,17946,17974,17989,17962,17958,17926,17859,12449,203,64,57,4289,15452,-2510,0,0,0,1.044466495513916,2,12107,12147,12210,12123,12071,12072,12135,12188,31516,157,190,92,2805,-15556,4150,0,0,0,1.044466495513916
1,31652,29176,27084,29468,31024,5720,13672,5921,-1886,0,-1839,1.0782482624053955,0,18399,18357,18350,18395,18499,18610,18642,18639,16819,652,115,110,-739,16423,-22,0,0,0,1.0782482624053955,1,17956,17934,17978,18031,18098,18161,18240,18269,13595,605,262,164,5757,15181,-1302,0,0,0,1.0782482624053955,2,12201,12214,12243,12253,12333,12315,12232,12117,32372,301,169,38,4315,-15743,3378,0,0,0,1.0782482624053955
1,31696,28152,28360,29592,31024,3003,15621,6133,-1874,0,-1830,1.110687017440796,0,18471,18472,18479,18539,18613,18671,18746,18772,17691,584,219,170,-915,15942,540,0,0,0,1.110687017440796,1,18433,18375,18357,18404,18439,18393,18461,18574,16364,257,216,117,5931,15203,-1440,0,0,0,1.110687017440796,2,12002,12047,12078,12103,12180,12224,12167,12161,31425,365,63,121,4616,-16085,4760,0,0,0,1.110687017440796
1,31728,24796,28516,29680,31032,5063,15795,4114,-1865,0,-1822,1.1446876525878906,0,18788,18720,18613,18446,18305,18329,18361,18416,16906,920,221,232,-996,16539,-146,0,0,0,1.1446876525878906,1,18984,18963,18842,18689,18611,18655,18625,18639,18936,727,316,193,5671,15139,-1322,0,0,0,1.1446876525878906,2,12299,12305,12328,12311,12352,12387,12469,12589,33504,404,254,222,4808,-15974,3521,0,0,0,1.1446876525878906
1,31824,15716,28304,29908,31020,3430,13112,10530,-1863,0,-1813,1.1825783252716064,0,18397,18312,18159,18166,18302,18470,18204,18419,15357,372,389,247,-755,16079,727,0,0,0,1.1825783252716064,1,18959,18922,18912,18826,18781,18726,18705,18742,19501,479,146,99,5797,15511,-1297,0,0,0,1.1825783252716064,2,12343,12433,12417,12507,12608,12664,12616,12553,34605,559,89,134,3484,-15798,4023,0,0,0,1.1825783252716064
1,31836,15624,28420,29952,31004,4179,15455,4744,-1853,0,-1803,1.209498643875122,0,18034,18085,18061,18050,18033,18137,18166,18161,13655,224,160,41,122,16544,289,0,0,0,1.209498643875122,1,18849,18904,18906,18854,18770,18625,18583,18656,19075,674,131,26,5313,15255,-1776,0,0,0,1.209498643875122,2,12215,12308,12447,12539,12580,12679,12679,12518,34429,801,338,89,3974,-15318,3978,0,0,0,1.209498643875122
1,31840,15612,28724,30024,31048,2080,16259,4944,-1825,0,-1780,1.2445306777954102,0,17918,18007,18044,18028,17908,17837,17816,17818,12304,497,34,55,-576,16352,-114,0,0,0,1.2445306777954102,1,18528,18666,18836,18799,19025,18866,18437,18194,18279,1267,607,133,5629,14857,-2579,0,0,0,1.2445306777954102,2,12141,12159,12195,12190,12201,12095,12123,12179,31747,127,117,99,5335,-15060,3727,0,0,0,1.2445306777954102
1,31316,15624,29164,30008,31076,5051,14109,4673,-1821,0,-1776,1.2785909175872803,0,17942,17748,17629,17662,17698,17766,17804,17660,10837,295,282,305,-832,15677,1140,0,0,0,1.2785909175872803,1,18770,18808,18580,18466,18684,18918,18682,18267,18103,138,1011,346,4244,14652,-1255,0,0,0,1.2785909175872803,2,12167,12267,12362,12395,12418,12474,12319,12423,33289,397,123,243,3828,-15607,2626,0,0,0,1.2785909175872803
1,29164,15976,29760,29976,31100,4763,14245,2837,-1837,0,-1788,1.311471700668335,0,17754,17885,17771,17602,17440,17382,17397,17434,9593,1011,232,126,148,15904,928,0,0,0,1.311471700668335,1,18198,18226,18277,18303,18324,18382,18398,18381,15417,338,170,83,5627,14783,-1051,0,0,0,1.311471700668335,2,12275,12244,12192,12208,12190,12225,12234,12267,32299,156,39,32,2914,-15696,3531,0,0,0,1.311471700668335
1,27476,24004,30240,29996,31132,4945,16191,2661,-1840,0,-1788,1.3395342826843262,0,17561,17548,17430,17358,17384,17406,17272,17307,8194,380,377,114,84,16053,789,0,0,0,1.3395342826843262,1,17750,17530,17654,17998,17852,17528,17513,17958,10711,213,997,134,5029,15386,-711,0,0,0,1.3395342826843262,2,12325,12367,12325,12247,12212,12265,12234,12130,32568,266,255,139,2883,-16548,3365,0,0,0,1.3395342826843262
1,22500,29256,30420,29936,31096,2637,15733,5095,-1835,0,-1779,1.3700230121612549,0,17299,17247,17170,17018,16938,17005,17183,17321,6109,748,145,38,-1201,15438,1157,0,0,0,1.3700230121612549,1,18021,18023,18178,18266,18311,18409,18479,18219,14834,804,329,63,3654,15532,-961,0,0,0,1.3700230121612549,2,12079,12106,12085,11841,11850,11795,11703,11714,29637,779,373,122,3339,-15925,3406,0,0,0,1.3700230121612549
1,16476,29612,30480,29928,31028,4508,14375,5749,-1841,0,-1781,1.4026598930358887,0,17420,17461,17516,17550,17648,17717,17699,17563,9502,546,160,56,-1145,15945,414,0,0,0,1.4026598930358887,1,18313,18543,18556,17879,17103,17082,17732,18069,12205,2935,929,86,5855,14492,-937,0,0,0,1.4026598930358887,2,11920,12074,12163,12227,12255,12306,12274,12192,31875,580,264,148,3916,-15830,3264,0,0,0,1.4026598930358887
1,16136,29684,30556,29892,31136,4383,14533,6226,-1845,0,-1781,1.435035228729248,0,17535,17528,17574,17554,17538,17572,17600,17605,9434,93,116,41,-783,15744,307,0,0,0,1.435035228729248,1,17960,17868,17515,17670,18201,18302,18225,18643,13312,1710,444,684,4660,15446,-1660,0,0,0,1.435035228729248,2,11985,11956,11919,11903,11844,11862,11898,11989,29820,269,74,20,2922,-15843,4342,0,0,0,1.435035228729248
1,16124,29652,30620,29908,31088,5769,14509,5593,-1838,0,-1778,1.4690814018249512,0,17728,17718,17682,17653,17657,17733,17821,17885,10805,385,146,89,-632,16528,-79,0,0,0,1.4690814018249512,1,17702,17844,17957,17862,17740,17796,18018,17891,11738,50,544,118,6014,15226,-1954,0,0,0,1.4690814018249512,2,12051,11955,12033,12072,12004,12014,12046,12069,30707,52,173,94,3829,-16135,4068,0,0,0,1.4690814018249512
1,16148,29708,30760,29940,31068,5325,14873,5052,-1827,0,-1768,1.5036475658416748,0,18216,18094,18068,18126,18139,18107,18092,18128,13898,77,202,85,-1005,16377,691,0,0,0,1.5036475658416748,1,17874,17809,17487,17485,17637,17765,17817,17716,10518,632,426,202,4588,15931,-1791,0,0,0,1.5036475658416748,2,12273,12145,11986,11962,12078,12169,12261,12288,31626,663,122,33,3690,-16206,3556,0,0,0,1.5036475658416748
1,16108,29576,30716,29912,31040,4454,14982,5763,-1828,0,-1766,1.536435604095459,0,18372,18300,18230,18062,18086,18135,18186,18245,14544,532,134,69,-363,16476,784,0,0,0,1.536435604095459,1,17698,17719,17647,17742,17738,17759,17799,17884,10914,282,148,114,6216,15383,-2289,0,0,0,1.536435604095459,2,12190,12293,12250,12128,12002,12030,12070,12061,31488,526,185,72,2248,-16783,4956,0,0,0,1.536435604095459
1,16144,29108,30800,29984,31060,5855,14862,4642,-1827,0,-1768,1.5686039924621582,0,18573,18661,18668,18669,18601,18504,18489,18566,17659,362,72,66,-1748,16398,494,0,0,0,1.5686039924621582,1,18006,17944,17799,17754,17813,17868,17895,17893,11900,372,207,65,4497,15282,-1520,0,0,0,1.5686039924621582,2,12244,12170,12231,12295,12284,12179,12130,12195,32192,202,218,52,4154,-15254,3304,0,0,0,1.5686039924621582
1,16316,27320,30708,29948,31040,5180,15439,3841,-1814,0,-1756,1.60048508644104,0,18748,18809,18778,18737,18743,18732,18587,18494,18556,432,334,127,-966,16409,550,0,0,0,1.60048508644104,1,18023,18119,18157,18082,17954,17985,18115,18156,13519,231,324,78,4989,15357,-1788,0,0,0,1.60048508644104,2,12331,12287,12251,12342,12442,12493,12466,12336,33412,441,116,83,4273,-15784,3628,0,0,0,1.60048508644104
1,17688,21856,30808,29992,31084,3348,15565,6481,-1814,0,-1750,1.6346354484558105,0,18377,18169,18133,18051,18051,18059,18145,18296,14209,586,191,112,-2027,16232,943,0,0,0,1.6346354484558105,1,17760,17821,17875,17937,17958,17994,18080,18115,12468,493,335,206,5230,15227,-2342,0,0,0,1.6346354484558105,2,12136,12121,12086,12170,12076,12082,12067,12098,31299,104,87,102,3856,-15982,4296,0,0,0,1.6346354484558105
1,25892,15800,30840,30036,31164,3915,15640,5193,-1814,0,-1751,1.6706950664520264,0,18376,18413,18458,18509,18573,18579,18567,18563,16966,382,110,126,-994,16420,943,0,0,0,1.6706950664520264,1,18292,18144,18041,18028,18037,18114,18231,18283,14098,574,77,61,5178,15104,-2100,0,0,0,1.6706950664520264,2,12113,12267,12293,12251,12312,12304,12233,12283,32520,202,107,223,3832,-15703,3419,0,0,0,1.6706950664520264
1,28780,15940,30724,30088,31136,4922,13937,4883,-1809,0,-1745,1.7034556865692139,0,18255,18251,18254,18304,18362,18396,18405,18411,15566,355,79,84,-1092,16160,261,0,0,0,1.7034556865692139,1,18340,18342,18349,18268,18322,18424,18470,18528,15971,390,159,161,5842,15589,-792,0,0,0,1.7034556865692139,2,12457,12555,12551,12352,12078,12031,12004,12117,32609,1230,118,174,3960,-15402,3141,0,0,0,1.7034556865692139
1,30272,15928,30112,30136,31012,5426,14610,4971,-1799,0,-1737,1.7355222702026367,0,18095,18007,17951,17954,18058,18154,18291,18329,13767,736,151,127,-182,16481,95,0,0,0,1.7355222702026367,1,18180,18257,18322,18360,18311,18214,18174,18130,14876,430,19,45,5943,14843,-1230,0,0,0,1.7355222702026367,2,12221,12265,12300,12317,12332,12268,12309,12273,32748,145,79,86,4025,-16072,3327,0,0,0,1.7355222702026367
1,31044,15940,29300,30188,31056,3965,16695,4018,-1790,0,-1727,1.7696645259857178,0,17927,18023,18120,18209,18124,17890,17774,17768,12763,858,169,63,-1214,16693,7,0,0,0,1.7696645259857178,1,18302,18329,18304,18320,18343,18368,18361,18387,15642,133,22,63,5364,15598,-747,0,0,0,1.7696645259857178,2,12195,12289,12354,12376,12376,12380,12412,12438,33284,261,243,168,5400,-16154,3026,0,0,0,1.7696645259857178
1,31220,15928,27464,30312,31100,3438,15691,3347,-1799,0,-1732,1.8006832599639893,0,17586,17535,17534,17562,17572,17490,17459,17429,9095,206,168,91,-125,16925,1098,0,0,0,1.8006832599639893,1,18015,18032,18031,18233,18527,18601,18542,18565,15474,1334,167,366,3556,15423,-582,0,0,0,1.8006832599639893,2,12267,12189,12132,12099,12067,12087,12105,12158,31568,319,98,86,5070,-16565,2080,0,0,0,1.8006832599639893
1,31192,20284,24448,30264,31028,3972,16526,3870,-1817,0,-1747,1.833597183227539,0,17358,17214,17250,17315,17417,17538,17414,17401,7835,507,116,166,-191,17131,115,0,0,0,1.833597183227539,1,18232,18191,18220,18242,18168,18105,18163,18259,14508,172,205,12,6023,15793,-1148,0,0,0,1.833597183227539,2,12129,12165,12169,12082,12081,12092,12047,12024,31253,222,151,47,3453,-16725,3239,0,0,0,1.833597183227539
1,31056,25884,19488,30196,31076,4914,15819,3535,-1838,0,-1765,1.864471673965454,0,17160,17097,17088,17190,17153,17092,17193,17184,6085,97,187,113,-299,15946,566,0,0,0,1.864471673965454,1,18208,18215,18216,18267,18297,18295,18246,18199,14871,197,61,26,6379,15425,-1279,0,0,0,1.864471673965454,2,11897,12037,12118,12128,12014,11950,11974,11970,30552,358,212,72,3584,-16237,3036,0,0,0,1.864471673965454
1,31104,28368,16540,29668,31012,2507,14682,8754,-1849,0,-1769,1.89723539352417,0,17215,17230,17249,17257,17243,17253,17215,17198,6788,104,28,31,-367,16323,916,0,0,0,1.89723539352417,1,18168,18148,17993,18061,18167,18199,18107,17963,13734,131,399,181,6001,15725,-929,0,0,0,1.89723539352417,2,12046,12025,12064,12124,12149,12086,11993,12067,31018,198,159,76,2961,-16828,3189,0,0,0,1.89723539352417
1,31084,29336,19196,28776,30940,5471,15455,3535,-1854,0,-1774,1.929593563079834,0,17420,17495,17454,17404,17483,17509,17514,17497,8704,135,121,119,-171,16758,610,0,0,0,1.929593563079834,1,18228,18204,18195,18075,18078,18139,18140,18121,14108,238,149,82,5772,15595,-365,0,0,0,1.929593563079834,2,12131,12094,12094,12085,12088,12111,12144,12174,31385,156,57,26,4646,-16809,2232,0,0,0,1.929593563079834
1,31048,29812,27252,25620,31008,4913,16841,4206,-1861,0,-1776,1.9618041515350342,0,17525,17441,17448,17475,17459,17495,17745,17886,9402,702,473,189,-153,17595,583,0,0,0,1.9618041515350342,1,18106,18178,18188,18207,18190,18104,17851,17833,13585,717,353,129,6706,16288,87,0,0,0,1.9618041515350342,2,12092,12124,12155,12100,12102,12084,12104,12183,31408,79,99,126,3818,-16698,3360,0,0,0,1.9618041515350342
1,31116,29916,28608,15700,30960,4517,16645,5577,-1866,0,-1774,1.9950523376464844,0,17770,17806,17712,17731,17749,17721,17751,17814,10982,144,58,105,336,17724,541,0,0,0,1.9950523376464844,1,17966,17937,17912,17935,17950,17991,17994,17823,12436,109,170,181,5911,17050,-700,0,0,0,1.9950523376464844,2,12093,12169,12210,12205,12174,12153,12142,12181,31791,129,106,85,4367,-17378,2860,0,0,0,1.9950523376464844
1,31108,30004,29412,15328,30952,4299,17480,5276,-1871,0,-1774,2.0256521701812744,0,18025,18041,18008,17948,17873,17858,17866,17914,12461,391,44,48,1054,18048,484,0,0,0,2.0256521701812744,1,17773,17803,17794,17793,17872,17948,17949,17894,11754,353,117,70,5857,17341,-480,0,0,0,2.0256521701812744,2,12196,12180,12144,12133,12088,12117,12052,12089,31463,207,115,95,4070,-17694,2524,0,0,0,2.0256521701812744
1,31168,30124,29664,15272,30988,4921,16573,4163,-1876,0,-1778,2.0528006553649902,0,18202,18116,18068,18124,18166,18134,18070,18010,13818,87,257,147,387,17736,1114,0,0,0,2.0528006553649902,1,17691,17664,17662,17682,17629,17586,17561,17580,9983,232,97,83,5047,16906,-244,0,0,0,2.0528006553649902,2,12193,12175,12153,12106,12030,12047,12112,12158,31438,305,59,37,4322,-17503,1926,0,0,0,2.0528006553649902
1,31140,30044,29936,15228,30936,2931,17188,3556,-1884,0,-1779,2.0846376419067383,0,18369,18381,18165,18153,18198,18163,18232,18100,14689,313,337,264,445,17195,1118,0,0,0,2.0846376419067383,1,17435,17537,17549,17593,17568,17615,17661,17680,9566,261,239,139,5422,16647,-170,0,0,0,2.0846376419067383,2,12129,12206,12218,12092,12052,12032,12103,12153,31449,311,140,95,3057,-17423,2905,0,0,0,2.0846376419067383
1,31212,30144,29944,15244,30964,2974,17879,3289,-1889,0,-1780,2.1158463954925537,0,18481,18524,18591,18712,18757,18641,18460,18397,17491,641,195,30,1382,17499,1736,0,0,0,2.1158463954925537,1,17813,17725,17749,17768,17724,17696,17626,17603,10632,260,169,185,5644,16839,-144,0,0,0,2.1158463954925537,2,12242,12257,12228,12298,12334,12218,12172,12119,32332,283,185,98,3068,-17741,1696,0,0,0,2.1158463954925537
1,31168,30108,30012,15284,30968,7185,14793,2600,-1893,0,-1779,2.148707389831543,0,18509,18435,18363,18382,18544,18628,18626,18462,16877,470,228,83,1060,17761,1850,0,0,0,2.148707389831543,1,18067,17728,17659,17668,17735,17699,17796,17735,11015,432,347,286,4683,17634,921,0,0,0,2.148707389831543,2,12218,12208,12235,12281,12325,12392,12453,12270,32846,419,153,100,2910,-18535,1254,0,0,0,2.148707389831543
1,31260,30080,29948,15236,30952,4487,16652,1933,-1891,0,-1772,2.1824655532836914,0,18572,18600,18596,18618,18647,18734,18739,18739,18173,334,118,75,1023,16799,1370,0,0,0,2.1824655532836914,1,17969,18036,18053,18008,17886,17929,17994,17965,12768,209,192,60,4804,16874,42,0,0,0,2.1824655532836914,2,12348,12280,12293,12308,12352,12372,12414,12479,33310,311,135,88,3036,-16783,1672,0,0,0,2.1824655532836914
1,31164,29960,29936,15356,30808,1052,15229,4863,-1885,0,-1760,2.2158122062683105,0,18480,18359,18366,18406,18457,18443,18412,18464,16315,146,172,68,403,15634,1412,0,0,0,2.2158122062683105,1,18124,18128,18135,18242,18238,18148,18026,18049,14018,351,201,38,4446,15499,-165,0,0,0,2.2158122062683105,2,12322,12332,12231,12241,12223,12227,12276,12354,32669,258,52,67,2908,-16323,1844,0,0,0,2.2158122062683105
1,31204,29936,29788,16440,30508,5722,14183,1993,-1882,0,-1749,2.249838352203369,0,18496,18505,18432,18287,18280,18287,18326,18340,15881,464,165,26,634,15931,1160,0,0,0,2.249838352203369,1,18126,18286,18358,18405,18469,18518,18530,18261,15881,652,323,134,4848,14638,-193,0,0,0,2.249838352203369,2,12334,12376,12398,12376,12279,12296,12300,12305,33128,213,85,49,3353,-15404,2156,0,0,0,2.249838352203369
1,31152,29872,29652,22920,30104,4232,15350,5000,-1879,0,-1740,2.282766103744507,0,17947,17964,17982,17996,17913,17872,17834,17838,12274,325,44,85,-650,15177,1646,0,0,0,2.282766103744507,1,18688,18652,18399,18300,18264,18178,18102,18189,15700,984,565,203,4381,14859,618,0,0,0,2.282766103744507,2,12028,12031,12052,12083,12027,11894,11867,11931,30377,389,162,22,3283,-15270,2156,0,0,0,2.282766103744507
1,30784,29888,29652,27176,29560,2802,14771,4880,-1875,0,-1734,2.3159470558166504,0,17850,17849,17895,17920,17886,17816,17700,17718,11562,393,143,88,797,15312,1756,0,0,0,2.3159470558166504,1,18441,18533,18599,18646,18622,18542,18438,18295,17044,593,136,109,4040,14578,-214,0,0,0,2.3159470558166504,2,12160,12115,12067,12143,12185,12214,12215,12060,31623,221,140,171,3139,-15353,1033,0,0,0,2.3159470558166504
1,30292,29868,29612,28400,28592,582,15342,3787,-1872,0,-1728,2.350804328918457,0,17568,17532,17444,17430,17536,17594,17587,17511,9130,248,198,45,1158,15804,1511,0,0,0,2.350804328918457,1,18720,18855,18829,18756,18571,18554,18718,18815,18746,492,302,121,3985,14834,-350,0,0,0,2.350804328918457,2,12190,12253,12100,12042,12015,12128,12189,12160,31540,356,197,94,3224,-16103,1238,0,0,0,2.350804328918457
1,29500,29864,29860,28808,28616,1890,14773,3533,-1881,0,-1734,2.384756326675415,0,17597,17524,17435,17408,17349,17376,17466,17480,8563,404,46,125,1602,15085,1407,0,0,0,2.384756326675415,1,18439,18378,18214,18194,18393,18635,18722,18849,16752,1198,108,272,4338,14559,598,0,0,0,2.384756326675415,2,12155,12232,12187,12049,12020,12007,12113,12196,31423,418,125,129,2618,-15898,1044,0,0,0,2.384756326675415
1,28292,30168,30324,29264,28760,895,15558,4860,-1895,0,-1744,2.418663501739502,0,17182,17232,17279,17302,17240,17247,17234,17256,6900,121,120,27,1455,14851,1387,0,0,0,2.418663501739502,1,18370,18421,18410,18442,18446,18479,18330,18479,16305,91,78,159,3960,14740,704,0,0,0,2.418663501739502,2,12020,12064,12139,12005,12020,11952,11882,11921,30467,396,91,120,2227,-15760,1032,0,0,0,2.418663501739502
1,27716,30288,30616,29592,30188,86,16783,3638,-1912,0,-1761,2.4538733959198,0,17290,17319,17370,17458,17392,17493,17487,17403,8140,331,181,68,2387,15805,2259,0,0,0,2.4538733959198,1,18090,18103,18259,18388,18369,18207,17987,17829,14160,954,232,196,3336,15281,1242,0,0,0,2.4538733959198,2,11885,11955,12107,12151,12199,12212,12073,12004,31050,601,96,115,2379,-15932,482,0,0,0,2.4538733959198
1,27544,30356,30556,29784,30848,2226,16376,2887,-1937,0,-1786,2.4889891147613525,0,17490,17605,17635,17634,17718,17816,17785,17609,10220,484,276,63,1690,15321,1898,0,0,0,2.4889891147613525,1,17978,18051,18058,18037,18144,18214,18250,18234,13894,468,186,200,3684,15658,983,0,0,0,2.4889891147613525,2,12064,12110,11965,11972,12057,12111,12139,12187,31068,363,64,145,2460,-16061,550,0,0,0,2.4889891147613525
1,27600,30256,30508,29972,30960,1314,16020,4608,-1979,0,-1822,2.52945613861084,0,17885,17921,17932,17908,17838,17809,17824,17725,11770,316,102,139,2594,16456,2396,0,0,0,2.52945613861084,1,17956,18037,18184,18242,18161,18033,17994,17986,13521,535,169,27,4428,16287,1593,0,0,0,2.52945613861084,2,12380,12461,12450,12422,12233,12134,12115,12169,32828,771,48,120,1945,-17023,892,0,0,0,2.52945613861084
1,27748,29656,30644,29984,31000,3396,15902,2230,-1985,0,-1829,2.562617063522339,0,18239,18276,18312,18391,18471,18517,18452,18347,15933,515,77,30,1839,16259,2053,0,0,0,2.562617063522339,1,17971,18003,17824,17771,17832,17953,17993,18091,12366,538,95,124,4540,15925,954,0,0,0,2.562617063522339,2,12459,12496,12338,12402,12407,12504,12614,12663,34346,520,107,153,2680,-16267,780,0,0,0,2.562617063522339
1,28056,28304,30516,30020,30976,2172,16386,1901,-1969,0,-1818,2.595555543899536,0,18098,18051,18246,18469,18583,18582,18482,18479,15918,1053,318,187,100,15472,2171,0,0,0,2.595555543899536,1,17762,17611,17586,17636,17648,17658,17767,17849,10445,432,223,4,2735,15365,942,0,0,0,2.595555543899536,2,12225,12284,12273,12291,12237,12200,12268,12473,32715,187,290,213,3761,-15747,985,0,0,0,2.595555543899536
1,28656,21292,29904,30080,31012,3559,12994,4054,-1968,0,-1814,2.6295087337493896,0,18527,18535,18585,18683,18399,18491,18662,18739,17549,216,509,89,1543,14279,2622,0,0,0,2.6295087337493896,1,17534,17356,17254,17363,17501,17595,17697,17810,9038,945,237,121,2936,14834,11,0,0,0,2.6295087337493896,2,12640,12584,12525,12565,12594,12644,12730,12449,35195,183,215,298,1043,-14893,1620,0,0,0,2.6295087337493896
1,28880,15748,29292,30048,31060,1513,14278,2114,-1988,0,-1831,2.6637744903564453,0,18291,18373,18550,18557,18449,18416,18316,18351,16231,483,173,120,498,14531,3231,0,0,0,2.6637744903564453,1,17834,17893,17817,17538,17389,17413,17360,17182,9354,1175,587,381,3255,14779,844,0,0,0,2.6637744903564453,2,12335,12377,12320,12239,12225,12259,12273,12315,32806,258,88,32,2067,-15303,1490,0,0,0,2.6637744903564453
1,28956,15744,29180,30076,30988,3340,15517,-1659,-2004,0,-1846,2.6971230506896973,0,18550,18548,18477,18561,18639,18360,18361,18402,16826,367,355,169,3886,14938,2274,0,0,0,2.6971230506896973,1,17612,17428,17474,17493,17499,17431,17465,17501,8831,116,218,110,2415,14788,2543,0,0,0,2.6971230506896973,2,12134,12043,12168,12200,12184,12186,12337,12447,32163,445,457,163,715,-15876,-475,0,0,0,2.6971230506896973
1,28932,15748,29148,30096,31060,-571,16497,856,-2003,0,-1842,2.7300198078155518,0,18290,18294,18207,18135,18118,18212,18231,18178,14593,260,195,98,1434,14119,3181,0,0,0,2.7300198078155518,1,16857,16652,16955,16928,17141,17549,17935,18113,7058,2453,1225,692,3467,15238,1809,0,0,0,2.7300198078155518,2,12189,12213,12310,12158,12193,12230,12231,12199,32187,40,180,121,-14,-16596,684,0,0,0,2.7300198078155518
1,28132,15844,29564,30164,31008,-114,15567,1526,-2006,0,-1842,2.7693984508514404,0,18060,18057,18084,18101,17967,17858,17879,18032,12966,435,227,15,2178,14385,3352,0,0,0,2.7693984508514404,1,17148,17298,17348,17443,17488,17466,17273,17144,7536,690,177,20,1651,15246,2877,0,0,0,2.7693984508514404,2,12251,12262,12329,12130,12075,12019,11951,12009,31489,687,149,150,1250,-16599,-1002,0,0,0,2.7693984508514404
1,26252,24580,30172,30112,31112,644,16046,2467,-2014,0,-1847,2.8015851974487305,0,17738,17742,17811,17726,17672,17746,17855,17855,11073,207,272,54,3864,15668,3726,0,0,0,2.8015851974487305,1,17374,17546,17605,17579,17698,17759,17654,17567,9710,519,245,189,2245,15082,2459,0,0,0,2.8015851974487305,2,11906,11953,12016,12046,12150,12129,12149,12104,30917,443,128,163,714,-16088,-1059,0,0,0,2.8015851974487305
1,24312,28236,30452,30092,31068,-2547,17115,3421,-2020,0,-1852,2.8344688415527344,0,17579,17633,17701,17641,17611,17518,17485,17572,9668,346,62,107,2693,14834,3715,0,0,0,2.8344688415527344,1,18220,18126,17979,17927,17847,17805,17873,17854,12559,669,262,262,979,16514,2699,0,0,0,2.8344688415527344,2,11824,11819,11907,11970,12021,12060,12163,12042,30269,572,261,84,1211,-17135,-101,0,0,0,2.8344688415527344
1,23228,28668,30520,30056,31028,2409,14903,1676,-2031,0,-1863,2.8685317039489746,0,17644,17656,17651,17659,17693,17746,17717,17590,10284,180,156,81,4751,15496,2945,0,0,0,2.8685317039489746,1,18068,18107,18140,18232,18323,18340,18339,18306,14783,555,126,143,3888,14760,2451,0,0,0,2.8685317039489746,2,12201,12189,12141,12119,12088,12075,12101,12057,31435,222,99,113,212,-16905,-230,0,0,0,2.8685317039489746
1,23336,28636,30372,29972,31080,1265,16002,2355,-2023,0,-1854,2.900669813156128,0,17430,17512,17647,17719,17636,17670,17788,17763,10093,403,475,125,2601,15183,3213,0,0,0,2.900669813156128,1,18389,18370,18393,18482,18553,18607,18553,18474,16749,466,21,9,2714,15413,1760,0,0,0,2.900669813156128,2,12246,12333,12377,12394,12250,12138,12063,12074,32339,684,56,98,721,-15400,1043,0,0,0,2.900669813156128
1,26232,28324,29836,29960,31052,1337,15364,3985,-1998,0,-1827,2.93648624420166,0,17938,17834,17872,17944,17981,18012,18018,18003,12530,338,105,46,258,15485,3927,0,0,0,2.93648624420166,1,18705,18619,18595,18607,18775,18944,18879,18539,18591,581,417,231,1284,16755,1850,0,0,0,2.93648624420166,2,12485,12357,12352,12426,12476,12439,12281,12310,33589,161,333,156,2441,-15926,-114,0,0,0,2.93648624420166
1,29324,24084,28996,29936,31044,170,16099,3363,-1986,0,-1814,2.9694910049438477,0,17780,17786,17706,17706,17842,17950,17905,17834,11437,414,196,37,2116,15135,3590,0,0,0,2.9694910049438477,1,18763,18664,18488,18390,18496,18573,18585,18539,17426,457,359,112,2719,15978,1375,0,0,0,2.9694910049438477,2,12249,12295,12060,12088,12229,12348,12368,12291,32392,505,268,153,-150,-16136,760,0,0,0,2.9694910049438477
1,30520,17716,26804,29848,31048,742,16803,-19,-1976,0,-1806,3.0075886249542236,0,17901,17942,17976,18074,18021,18019,18138,18219,13218,326,383,168,1827,15020,2976,0,0,0,3.0075886249542236,1,18387,18330,18208,18141,18007,17977,18087,18240,14305,761,123,84,2391,15156,2133,0,0,0,3.0075886249542236,2,12107,12225,12317,12181,12259,12357,12451,12528,32889,472,421,366,1518,-16026,200,0,0,0,3.0075886249542236
1,30676,17652,23752,29716,31060,383,17207,540,-1970,0,-1798,3.0387003421783447,0,17932,17866,17831,17789,17823,17920,17893,17981,11963,313,34,112,1989,15962,4042,0,0,0,3.0387003421783447,1,18141,18164,18227,18273,18294,18227,18053,18061,14368,445,165,80,1487,16078,1634,0,0,0,3.0387003421783447,2,12300,12414,12251,12256,12140,12102,12160,12156,32243,492,107,200,1274,-17149,245,0,0,0,3.0387003421783447
1,30796,18284,20564,29444,31028,2315,17663,-1822,-1971,0,-1798,3.0662386417388916,0,18223,18101,18093,18163,18170,18261,18373,18374,14686,549,189,24,3076,16988,4174,0,0,0,3.0662386417388916,1,17718,17566,17596,17746,17899,17797,17965,18019,11234,740,405,211,2465,17059,1842,0,0,0,3.0662386417388916,2,12228,12334,12364,12292,12232,12176,12201,12195,32486,345,107,50,1126,-17802,-742,0,0,0,3.0662386417388916
1,30708,25140,18360,28588,30996,657,17719,708,-1975,0,-1800,3.0995094776153564,0,18415,18250,18223,18332,18331,18368,18325,18405,15577,242,231,120,2645,16691,4597,0,0,0,3.0995094776153564,1,17823,17883,17949,18012,18166,18015,17918,17937,12631,489,132,209,2058,17085,1874,0,0,0,3.0995094776153564,2,12049,12037,12098,12293,12352,12358,12275,12256,32181,672,156,55,507,-17913,-9,0,0,0,3.0995094776153564
1,30700,28532,18452,25548,30916,931,17150,1463,-1989,0,-1812,3.1327528953552246,0,18359,18423,18423,18329,18286,18319,18290,18253,15610,276,173,53,2718,16803,3914,0,0,0,3.1327528953552246,1,17654,17680,17668,17694,17541,17491,17632,17700,9988,300,246,96,2861,16407,2177,0,0,0,3.1327528953552246,2,12221,12109,12149,12105,12075,12138,12151,12231,31642,241,89,132,625,-17900,60,0,0,0,3.1327528953552246
1,30696,29448,18664,15772,30976,1949,16563,-419,-2008,0,-1828,3.16548228263855,0,18337,18398,18437,18440,18458,18503,18534,18437,16472,259,177,51,2093,15594,3733,0,0,0,3.16548228263855,1,17596,17631,17716,17731,17642,17497,17459,17474,9674,549,99,45,1643,15481,2031,0,0,0,3.16548228263855,2,12167,12224,12255,12158,12177,12172,12246,12347,32210,182,191,209,1983,-16544,-418,0,0,0,3.16548228263855
1,30724,29880,26752,15248,30956,497,15425,4484,-2022,0,-1838,3.1984689235687256,0,18318,18357,18211,18204,18342,18418,18307,18257,15342,179,344,23,2714,15787,4178,0,0,0,3.1984689235687256,1,17426,17472,17458,17513,17694,17695,17502,17438,9126,501,268,83,2116,15769,1881,0,0,0,3.1984689235687256,2,12038,12062,12124,12149,12124,12033,12017,12046,31057,243,102,36,-335,-16449,745,0,0,0,3.1984689235687256
1,30660,30092,29388,15180,30900,1920,17776,-61,-2043,0,-1857,3.23195743560791,0,18386,18408,18296,18186,18304,18406,18444,18410,15768,389,223,78,1807,15533,2853,0,0,0,3.23195743560791,1,17441,17413,17427,17440,17395,17341,17395,17427,8207,127,113,28,2745,14459,2194,0,0,0,3.23195743560791,2,12178,12162,12118,12132,12151,12223,12232,12122,31782,151,132,109,2348,-15708,-386,0,0,0,3.23195743560791
1,30920,30252,29924,15220,30972,1072,15905,1189,-2058,0,-1868,3.266514301300049,0,18217,18240,18233,18140,18094,18105,18167,18170,14294,277,95,10,2175,14626,3728,0,0,0,3.266514301300049,1,17465,17472,17402,17396,17419,17460,17453,17458,8453,130,83,16,2295,15975,1443,0,0,0,3.266514301300049,2,11975,11992,11972,11898,11859,11944,12005,12063,30171,290,145,60,1087,-15641,85,0,0,0,3.266514301300049
1,31100,30364,30272,15296,30940,774,16762,1303,-2069,0,-1875,3.3036916255950928,0,17927,18043,18154,18100,18052,17972,17882,17936,12994,477,60,121,2376,15259,4043,0,0,0,3.3036916255950928,1,17591,17614,17519,17462,17437,17461,17486,17547,9045,332,69,20,2450,16201,1393,0,0,0,3.3036916255950928,2,11992,12079,12008,12034,11989,11894,11918,11987,30364,273,73,120,-41,-17304,663,0,0,0,3.3036916255950928
1,31236,30520,30400,15268,31044,3126,17519,-1409,-2078,0,-1883,3.3382933139801025,0,17677,17751,17653,17713,17758,17768,17801,17794,10843,220,22,148,2838,16207,3544,0,0,0,3.3382933139801025,1,17603,17700,17829,17907,17881,17743,17727,17717,11035,488,194,113,2567,15936,1879,0,0,0,3.3382933139801025,2,12252,12047,12072,12016,11978,12045,12130,12157,31161,406,85,177,941,-17243,89,0,0,0,3.3382933139801025
1,31364,30472,30352,15368,30972,-2315,16794,661,-2078,0,-1877,3.370048999786377,0,17569,17608,17705,17711,17715,17674,17567,17535,10012,383,37,65,1807,15401,4228,0,0,0,3.370048999786377,1,17850,17885,17889,18002,18070,18039,17912,17871,12446,423,129,19,2081,16664,1464,0,0,0,3.370048999786377,2,12044,12078,12154,12108,12142,12075,12064,12107,31236,133,69,132,455,-17072,670,0,0,0,3.370048999786377
1,31352,30288,30264,19540,30772,-1084,17578,1347,-2076,0,-1873,3.4037117958068848,0,17715,17595,17513,17636,17703,17735,17468,17671,9964,100,437,189,3089,15624,4058,0,0,0,3.4037117958068848,1,18423,18253,18349,18435,18437,18441,18415,18407,16088,244,176,146,2481,16160,858,0,0,0,3.4037117958068848,2,12097,12186,12240,12386,12401,12238,12211,12151,32374,531,122,142,50,-17028,173,0,0,0,3.4037117958068848
1,31300,30264,30200,24820,30416,925,15946,1781,-2082,0,-1874,3.43542218208313,0,17639,17503,17522,17447,17398,17463,17537,17392,8829,236,128,264,1111,15233,4142,0,0,0,3.43542218208313,1,18734,18694,18528,18419,18394,18530,18571,18486,17284,503,320,208,980,16005,1293,0,0,0,3.43542218208313,2,12142,12201,12222,12208,12190,12271,12157,12204,32059,101,76,111,738,-16688,-61,0,0,0,3.43542218208313
1,31312,30328,30144,26964,29928,9531,14429,1094,-2076,0,-1864,3.468055248260498,0,17510,17505,17491,17518,17569,17596,17513,17480,9110,161,127,35,1711,14959,4322,0,0,0,3.468055248260498,1,18369,18371,18470,18562,18486,18432,18445,18495,16558,209,260,33,2105,15934,297,0,0,0,3.468055248260498,2,12090,12008,12044,12070,12100,12139,12190,12147,31252,297,82,28,-730,-16728,490,0,0,0,3.468055248260498
1,31260,30292,30148,27532,29104,304,16081,3359,-2067,0,-1853,3.4947404861450195,0,17566,17543,17512,17558,17636,17660,17636,17698,9737,310,75,103,2277,15797,4216,0,0,0,3.4947404861450195,1,18624,18652,18691,18772,18793,18568,18411,18260,17699,845,366,194,2019,15978,1212,0,0,0,3.4947404861450195,2,12209,12285,12279,12314,12223,12221,12265,12332,32591,64,179,74,396,-16651,314,0,0,0,3.4947404861450195
1,31296,30284,30104,28000,28824,2970,15791,2279,-2066,0,-1850,3.5279769897460938,0,17620,17648,17628,17696,17773,17763,17703,17612,10371,309,120,54,1342,15390,3583,0,0,0,3.5279769897460938,1,18764,18651,18508,18549,18594,18523,18519,18632,17668,319,331,47,1909,15792,1166,0,0,0,3.5279769897460938,2,12179,12131,12172,12195,12199,12258,12156,12156,31910,144,62,124,1582,-16311,0,0,0,0,3.5279769897460938
1,31312,30284,30040,28560,28628,1854,15973,2601,-2071,0,-1851,3.557182788848877,0,17757,17767,17686,17681,17677,17740,17768,17751,10755,186,77,52,2590,15755,3409,0,0,0,3.557182788848877,1,18373,18420,18447,18430,18295,18283,18293,18322,15791,341,87,60,2321,16146,703,0,0,0,3.557182788848877,2,12165,12167,12093,12080,12159,12191,12193,12244,31756,255,50,98,979,-16796,496,0,0,0,3.557182788848877
1,31276,30300,30072,28936,28736,2042,16151,2542,-2071,0,-1849,3.5909621715545654,0,17811,17890,17949,17838,17892,17890,17928,17987,12113,87,179,225,2496,15536,3669,0,0,0,3.5909621715545654,1,18125,18137,18175,18171,18179,18112,18056,18095,13978,210,74,50,3002,15779,1155,0,0,0,3.5909621715545654,2,12212,12147,12189,12198,12094,12135,12221,12264,31924,186,207,63,740,-16502,236,0,0,0,3.5909621715545654
1,31340,30264,30112,29284,29312,-17593,18325,17266,-2066,0,-1842,3.623445987701416,0,17960,17964,18042,18086,18098,17970,17992,18007,13047,222,160,77,1775,15276,3345,0,0,0,3.623445987701416,1,17977,17942,17917,18000,18038,18011,17995,17925,12733,178,106,91,2613,15632,1411,0,0,0,3.623445987701416,2,12201,12197,12243,12139,12140,12097,12054,12099,31634,306,71,91,1204,-16484,-72,0,0,0,3.6244430541992188
1,31224,30308,30220,29360,30600,8792,16312,5134,-2074,0,-1846,3.655930995941162,0,18298,18100,18048,18062,18161,18262,18181,18164,14204,333,267,187,1783,15617,3830,0,0,0,3.655930995941162,1,17657,17702,17567,17572,17591,17729,17832,17851,10429,539,151,122,2084,16219,1537,0,0,0,3.655930995941162,2,12069,12070,12063,12089,12139,12057,12093,12048,31092,90,52,84,790,-16473,602,0,0,0,3.655930995941162
1,31188,30288,30388,29440,30816,-1519,16708,5800,-2073,0,-1844,3.6892788410186768,0,18520,18499,18215,18198,18183,18274,18342,18412,15571,658,218,137,2538,16022,3756,0,0,0,3.6892788410186768,1,17251,17254,17195,17078,16985,17134,17439,17735,6999,1026,582,314,3049,15700,1124,0,0,0,3.6892788410186768,2,12176,12258,12303,12261,12237,12296,12059,12013,32067,472,284,170,764,-16835,684,0,0,0,3.6892788410186768
1,31256,30336,30348,29112,30968,769,16746,3192,-2069,0,-1839,3.722151517868042,0,18602,18603,18679,18623,18467,18471,18485,18560,17418,379,144,102,2780,16382,3521,0,0,0,3.722151517868042,1,17589,17597,17676,17658,17594,17690,17770,17766,10268,236,296,50,2854,16084,1453,0,0,0,3.722151517868042,2,12417,12289,12280,12328,12369,12404,12345,12347,33242,160,162,119,636,-16792,768,0,0,0,3.722151517868042
1,31204,30396,30412,27892,30960,2771,15956,1749,-2065,0,-1833,3.753744125366211,0,18734,18781,18791,18821,18874,18908,18860,18745,19442,302,130,33,1989,15565,3788,0,0,0,3.753744125366211,1,17492,17546,17522,17475,17488,17474,17456,17524,8905,121,21,95,1742,15858,2072,0,0,0,3.753744125366211,2,12434,12497,12468,12340,12316,12374,12426,12519,33838,331,144,125,2297,-16861,-573,0,0,0,3.753744125366211
1,31212,30332,30448,22388,30888,1322,16924,3048,-2060,0,-1824,3.7850451469421387,0,18671,18677,18721,18716,18694,18689,18714,18710,18520,35,92,15,2345,16169,4082,0,0,0,3.7850451469421387,1,17699,17583,17639,17706,17676,17560,17595,17545,9931,189,177,148,2498,16724,1483,0,0,0,3.7850451469421387,2,12508,12552,12504,12453,12394,12346,12365,12416,34002,388,43,33,793,-16739,600,0,0,0,3.7850451469421387
1,31236,30384,30488,15156,30876,1529,17080,2866,-2052,0,-1812,3.818742036819458,0,18525,18414,18390,18378,18367,18342,18314,18431,16089,262,195,93,3160,15662,3843,0,0,0,3.818742036819458,1,17683,17672,17620,17563,17666,17782,17786,17638,10338,296,259,54,3460,16357,1546,0,0,0,3.818742036819458,2,12356,12367,12402,12447,12500,12504,12373,12364,33776,299,100,68,67,-17083,753,0,0,0,3.818742036819458
1,31300,30404,30332,15272,30948,1299,16904,2701,-2042,0,-1800,3.852900743484497,0,18515,18541,18463,18334,18321,18321,18295,18341,16059,476,202,37,1680,15841,4057,0,0,0,3.852900743484497,1,18091,18083,17877,17836,17760,17708,17751,17764,11798,701,293,223,1919,16626,1924,0,0,0,3.852900743484497,2,12557,12614,12534,12506,12557,12516,12466,12415,34629,201,238,65,1116,-16478,397,0,0,0,3.852900743484497
1,31332,30400,29264,15220,30916,2100,15993,1868,-2028,0,-1785,3.886404037475586,0,18190,18143,18003,17963,17894,17926,17940,17917,12904,485,235,213,1452,16039,3046,0,0,0,3.886404037475586,1,17769,17801,17892,17982,17902,17844,17770,17862,11750,304,199,69,1417,15940,1679,0,0,0,3.886404037475586,2,12319,12331,12358,12400,12257,12203,12233,12333,32898,283,199,22,1691,-17110,-117,0,0,0,3.886404037475586
1,31384,30336,27076,15276,30936,1451,18580,-1146,-2002,0,-1758,3.9226794242858887,0,17639,17659,17737,17836,17911,17894,17784,17773,11161,511,63,96,3159,16098,3214,0,0,0,3.9226794242858887,1,17827,17820,17791,17826,17934,17948,17928,17801,11803,300,147,64,3438,16316,1849,0,0,0,3.9226794242858887,2,12036,12120,12199,12232,12253,12161,12151,12246,31862,236,206,216,1341,-17012,260,0,0,0,3.9226794242858887
1,31304,30172,17740,24536,31004,338,16552,3044,-1965,0,-1719,3.961615562438965,0,17594,17490,17472,17451,17477,17458,17540,17489,8899,181,59,92,2812,15614,3772,0,0,0,3.961615562438965,1,17987,17994,18011,18013,17992,18088,18169,18159,13341,329,220,43,2979,16031,907,0,0,0,3.961615562438965,2,12250,12313,12309,12179,12102,12107,12241,12299,32264,399,206,82,1364,-16721,-211,0,0,0,3.961615562438965
1,31380,30164,16824,27780,30936,1224,16132,1580,-1962,0,-1713,3.9954631328582764,0,17287,17372,17436,17451,17467,17488,17374,17340,8143,345,88,68,2980,15895,3043,0,0,0,3.9954631328582764,1,18244,18250,18241,18323,18348,18375,18346,18378,15433,278,76,58,3272,15914,1595,0,0,0,3.9954631328582764,2,12161,12123,12067,12042,12050,12020,11991,11979,30897,238,195,92,1110,-16672,283,0,0,0,3.9954631328582764
1,31376,29804,20560,28516,31008,1045,15626,3639,-1956,0,-1704,4.027517080307007,0,17440,17357,17378,17404,17539,17705,17759,17618,9128,802,162,16,2187,15915,3680,0,0,0,4.027517080307007,1,18487,18448,18463,18469,18569,18720,18803,18668,17555,686,212,31,2620,16599,882,0,0,0,4.027517080307007,2,12240,12309,12230,12156,12089,12138,12058,12162,31846,399,135,61,744,-17461,627,0,0,0,4.027517080307007
1,31544,28732,23116,29024,30968,2814,16023,1322,-1935,0,-1684,4.059702634811401,0,17547,17526,17505,17529,17600,17670,17815,17982,10102,750,359,293,1697,15978,2845,0,0,0,4.059702634811401,1,18705,18639,18666,18601,18590,18566,18644,18732,18071,259,128,69,2286,15570,1793,0,0,0,4.059702634811401,2,12246,12192,12173,12130,12100,12183,12288,12336,32112,391,146,25,2103,-16394,113,0,0,0,4.059702634811401
1,31608,24980,24944,29408,31036,-551,17364,3192,-1914,0,-1662,4.089749336242676,0,17785,17853,17955,18016,17922,17965,17916,17830,12170,359,166,74,1241,15465,4174,0,0,0,4.089749336242676,1,18700,18805,18943,18753,18863,18929,18867,18780,19568,233,318,205,1256,16854,1723,0,0,0,4.089749336242676,2,12494,12446,12340,12245,12271,12259,12309,12376,33204,453,143,8,1261,-16143,512,0,0,0,4.089749336242676
1,31704,16928,26652,29560,31068,3033,14864,3755,-1918,0,-1664,4.122480630874634,0,17746,17765,17762,17861,17897,17854,17817,17836,11466,252,100,71,1915,16565,4187,0,0,0,4.122480630874634,1,18425,18337,18203,18055,17665,17713,17976,18132,13434,1397,163,308,2400,16415,1863,0,0,0,4.122480630874634,2,12195,12233,12321,12403,12362,12031,12014,11986,32009,810,254,131,1055,-17750,692,0,0,0,4.122480630874634
1,31696,15780,28624,29688,31052,2003,17451,2347,-1913,0,-1660,4.153505802154541,0,17889,17867,17838,17941,18017,18033,17983,17978,12474,362,87,36,2912,16120,3101,0,0,0,4.153505802154541,1,18341,18365,18408,18532,18598,18482,18221,18191,16066,675,333,72,4039,15933,1820,0,0,0,4.153505802154541,2,12231,11949,11947,12018,12056,12094,12062,12009,30829,221,278,284,173,-16315,1712,0,0,0,4.153505802154541
1,31652,15808,29528,29764,31112,3728,16806,-1010,-1895,0,-1643,4.185451507568359,0,18310,18420,18493,18445,18405,18453,18437,18357,16248,203,226,19,1143,16107,2540,0,0,0,4.185451507568359,1,17968,17960,18075,18363,18562,18567,18549,18667,15639,1379,511,416,1061,16609,2498,0,0,0,4.185451507568359,2,12447,12448,12240,12258,12240,12257,12236,12321,32911,397,245,90,3398,-16922,-345,0,0,0,4.185451507568359
1,31020,24132,30196,29748,31044,1656,16786,2525,-1886,0,-1632,4.217287063598633,0,18297,18504,18530,18422,18386,18319,18295,18288,15969,463,181,125,2025,15340,3927,0,0,0,4.217287063598633,1,18736,18434,17906,17816,17609,17201,16798,16960,10388,2936,1852,936,2612,16047,1566,0,0,0,4.217287063598633,2,12002,12077,12135,12073,12097,12126,12251,12374,31599,372,376,303,26,-16197,900,0,0,0,4.217287063598633
1,29344,28712,30572,29824,30992,345,17818,1382,-1898,0,-1640,4.252486944198608,0,18358,18393,18422,18495,18536,18537,18511,18472,16652,343,53,60,1257,15433,4192,0,0,0,4.252486944198608,1,17918,17825,17730,17757,18014,17882,17267,16748,10069,1418,1522,690,1883,16311,1386,0,0,0,4.252486944198608,2,11888,11881,11933,12051,12149,12035,12131,12119,30651,479,255,204,1659,-17274,-60,0,0,0,4.252486944198608
1,23532,29884,30580,29844,31056,438,15676,3116,-1911,0,-1647,4.2900755405426025,0,18690,18648,18599,18471,18396,18417,18444,18468,17061,556,133,133,3320,15788,3499,0,0,0,4.2900755405426025,1,17623,17656,17786,17897,17849,18039,18112,17650,11540,793,450,317,2734,16376,1397,0,0,0,4.2900755405426025,2,12269,12240,12178,12094,11951,11863,11897,11956,30912,808,154,170,302,-17045,791,0,0,0,4.2900755405426025
1,16732,29892,30668,29880,31068,2161,15611,1444,-1908,0,-1642,4.322207689285278,0,18459,18432,18414,18480,18509,18451,18322,18216,16211,364,297,170,2417,15116,3039,0,0,0,4.322207689285278,1,17960,17839,17684,17806,17819,17859,17776,17572,11243,70,451,402,2787,15219,1010,0,0,0,4.322207689285278,2,12288,12215,12120,12207,12237,12231,12154,12146,32061,4,267,124,1042,-16086,-82,0,0,0,4.322207689285278
1,16144,29888,30680,29860,31008,2657,14886,1549,-1897,0,-1630,4.355384826660156,0,18229,18360,18400,18279,18181,18057,18080,18142,14656,652,70,69,1919,14736,3216,0,0,0,4.355384826660156,1,17846,17865,17911,17728,17720,17751,17648,17454,10851,537,434,239,1486,15057,1715,0,0,0,4.355384826660156,2,12281,12187,12196,12088,11984,12010,12041,12091,31341,507,33,172,1652,-15753,-106,0,0,0,4.355384826660156
1,16028,29908,30688,29888,31052,1031,15715,2436,-1889,0,-1619,4.388140439987183,0,18150,18097,18035,18064,18083,18084,17940,17960,13341,177,302,131,2332,15560,3771,0,0,0,4.388140439987183,1,18016,17981,18077,17918,17718,17602,17661,17873,11774,893,208,131,2122,15990,1095,0,0,0,4.388140439987183,2,12156,12076,12076,12065,12055,12022,12021,12045,30980,164,114,77,541,-16343,758,0,0,0,4.388140439987183
1,16112,29952,30660,29856,30996,873,15908,2610,-1890,0,-1617,4.423565149307251,0,17839,17874,17921,17909,17930,18037,18031,17893,12362,305,213,36,3082,15529,3594,0,0,0,4.423565149307251,1,17750,17713,17742,17826,17753,17811,17808,17761,11092,148,78,120,2830,15431,1530,0,0,0,4.423565149307251,2,12078,12152,12168,12154,12198,12015,12039,11994,31262,365,71,131,74,-16634,435,0,0,0,4.423565149307251
1,16116,29884,30672,29924,31040,2321,14910,1786,-1893,0,-1618,4.462624788284302,0,17714,17710,17828,17920,17857,17704,17627,17719,11007,446,253,54,3171,15782,3396,0,0,0,4.462624788284302,1,17787,17781,17753,17778,17872,17871,17780,17776,11326,174,159,40,2577,15593,1653,0,0,0,4.462624788284302,2,12010,12102,12189,12229,12130,12058,12113,12032,31327,335,190,95,1207,-17156,-213,0,0,0,4.462624788284302
1,27948,29144,30700,29928,31028,232,17266,3149,-1874,0,-1595,4.504053354263306,0,17617,17607,17568,17525,17521,17667,17761,17761,9955,458,191,32,1378,15126,3762,0,0,0,4.504053354263306,1,18060,18099,18040,17878,17787,17857,17954,18018,12621,565,158,14,1324,16287,802,0,0,0,4.504053354263306,2,12351,12277,12334,12396,12428,12431,12419,12302,33402,282,27,107,907,-16325,1216,0,0,0,4.504053354263306
1,29624,26300,30848,30000,31084,1813,16838,1315,-1857,0,-1579,4.540943622589111,0,17524,17555,17643,17673,17712,17900,18069,18131,11135,999,590,303,2169,15996,2648,0,0,0,4.540943622589111,1,18007,17942,18005,18035,18090,18191,18249,18255,13702,584,222,107,2418,16076,2166,0,0,0,4.540943622589111,2,12568,12196,12143,12204,12332,12389,12395,12426,33117,602,364,219,1851,-16603,665,0,0,0,4.540943622589111
1,29924,23500,30680,30084,31076,591,16340,1933,-1867,0,-1586,4.574808359146118,0,17931,17783,17734,17677,17570,17479,17459,17466,10027,768,330,308,1120,15552,3581,0,0,0,4.574808359146118,1,18251,18024,18187,18276,18330,18399,18424,18414,15233,648,268,153,2941,16671,814,0,0,0,4.574808359146118,2,12642,12609,12516,12498,12360,12235,12211,12248,33783,832,291,237,936,-16457,1749,0,0,0,4.574808359146118
1,30224,16324,30580,30076,31024,2926,16870,1482,-1885,0,-1601,4.605763912200928,0,17830,17754,17815,17964,17814,17782,17669,17646,11202,418,176,267,2679,16275,3441,0,0,0,4.605763912200928,1,18256,18280,18350,18194,18272,18378,18517,18502,15677,473,341,203,3600,16216,476,0,0,0,4.605763912200928,2,12425,12537,12522,12446,12476,12476,12345,12206,33897,428,362,83,508,-16990,1471,0,0,0,4.605763912200928
1,30532,16300,30436,30084,31040,4623,15918,176,-1875,0,-1591,4.63889741897583,0,17824,17741,17719,17826,18004,18082,18054,18157,12335,831,169,222,2140,16344,3431,0,0,0,4.63889741897583,1,18541,18626,18687,18685,18561,18475,18534,18602,17639,319,220,69,1489,16425,2135,0,0,0,4.63889741897583,2,12310,12347,12422,12425,12512,12594,12450,12480,34004,415,61,197,1970,-16743,14,0,0,0,4.63889741897583
1,30708,16348,30064,30116,31108,-96,16218,4366,-1862,0,-1575,4.670868158340454,0,17894,17923,17956,18033,18053,18056,18026,17889,12758,360,66,86,1246,15522,4195,0,0,0,4.670868158340454,1,18693,18419,18371,18483,18532,18509,18408,18389,16732,46,449,293,2203,16465,2292,0,0,0,4.670868158340454,2,12350,12281,12313,12299,12307,12338,12405,12292,33049,127,67,104,514,-16589,1369,0,0,0,4.670868158340454
1,30868,16244,28940,30152,31216,2687,16278,1323,-1874,0,-1585,4.702695369720459,0,18006,18152,18110,18169,18186,18181,18175,18311,14218,211,173,265,1887,16049,2866,0,0,0,4.702695369720459,1,18604,18591,18410,18339,18413,18637,18695,18640,17257,647,264,41,3353,15714,1447,0,0,0,4.702695369720459,2,12409,12454,12381,12273,12321,12388,12371,12323,33384,171,246,6,2117,-16595,328,0,0,0,4.702695369720459
1,30960,16176,26572,30236,31124,1260,15380,2321,-1876,0,-1585,4.735653877258301,0,18227,18280,18347,18236,18182,18122,18027,18056,14405,559,115,101,2316,15270,3336,0,0,0,4.735653877258301,1,18362,18452,18354,18234,18185,18113,18188,18280,15096,584,51,103,2825,16229,771,0,0,0,4.735653877258301,2,12347,12361,12304,12303,12198,12152,12156,12187,32472,434,88,116,1561,-16716,-499,0,0,0,4.735653877258301
1,31052,22596,15812,30220,30980,2971,18556,-4074,-1877,0,-1584,4.76798415184021,0,17996,18332,18583,18502,18310,18095,18079,18137,14962,1013,414,236,3376,14659,4223,0,0,0,4.76798415184021,1,18105,18095,18108,18206,18266,18211,18142,18078,14139,334,122,44,2610,15507,1136,0,0,0,4.76798415184021,2,12161,12105,12168,12270,12235,12250,12173,12161,31987,255,93,107,50,-15521,-107,0,0,0,4.76798415184021
1,31180,28900,16052,29732,31036,2441,16575,2104,-1915,0,-1618,4.804202318191528,0,18072,18019,17963,18076,18171,18236,18226,18261,13952,560,98,79,1304,16864,3614,0,0,0,4.804202318191528,1,17831,17936,17985,17987,18001,17930,17697,17647,11942,669,276,79,3760,15460,461,0,0,0,4.804202318191528,2,11956,12032,11882,11902,11989,12081,12163,12126,30595,482,131,179,2965,-17589,-128,0,0,0,4.804202318191528
1,31248,29348,16100,29316,31036,2359,16473,1702,-1922,0,-1624,4.835713863372803,0,18311,18304,18288,18328,18351,18373,18400,18391,15674,210,49,40,3894,15786,1922,0,0,0,4.835713863372803,1,17848,17694,17716,17752,17800,17925,17942,17900,11505,494,34,114,5067,15078,1166,0,0,0,4.835713863372803,2,12035,12065,12048,11988,12030,12110,12128,12033,30901,143,189,17,1068,-16432,489,0,0,0,4.835713863372803
1,31240,29780,18984,28508,31024,1189,15544,4622,-1918,0,-1620,4.864911794662476,0,18260,18166,18232,18205,18179,18257,18320,18317,14864,250,150,86,1257,15166,3554,0,0,0,4.864911794662476,1,17799,17806,17762,17743,17758,17729,17780,17836,11141,163,46,79,1863,16228,1680,0,0,0,4.864911794662476,2,12106,12138,12128,12054,12094,12199,12212,12232,31627,270,149,110,494,-16513,327,0,0,0,4.864911794662476
1,31228,30256,28256,25688,30968,3210,15233,3342,-1932,0,-1633,4.897493362426758,0,18313,18374,18404,18395,18430,18467,18454,18319,16084,244,171,38,1854,16306,3222,0,0,0,4.897493362426758,1,17631,17509,17594,17701,17756,17701,17826,17865,10511,504,357,107,3099,16297,1566,0,0,0,4.897493362426758,2,12121,12203,12272,12327,12307,12164,12080,12137,32075,459,123,84,2407,-16711,-33,0,0,0,4.897493362426758
1,31364,30264,29556,16076,31012,3398,16115,2293,-1957,0,-1655,4.929895877838135,0,17988,18053,18097,18155,18193,18204,18039,17943,13600,472,165,53,2843,16398,2853,0,0,0,4.929895877838135,1,17532,17491,17418,17429,17535,17574,17638,17528,9073,348,108,92,2037,16425,1149,0,0,0,4.929895877838135,2,11846,11845,11884,11989,12103,12130,12129,12033,30422,640,79,87,1432,-16735,731,0,0,0,4.929895877838135
1,31332,30340,29944,15284,31032,1738,16552,3478,-1970,0,-1664,4.961806297302246,0,17985,17981,17949,17968,17994,18009,18048,18045,12907,175,29,50,2444,15534,3143,0,0,0,4.961806297302246,1,17580,17637,17588,17466,17438,17489,17512,17546,9184,327,140,33,3123,16252,1754,0,0,0,4.961806297302246,2,12081,12118,12148,12021,12040,12086,12140,12113,31211,133,181,68,561,-16498,1282,0,0,0,4.961806297302246
1,31296,30356,30120,15260,30928,2280,16005,2525,-1980,0,-1671,4.9948410987854,0,17839,17863,17803,17808,17772,17834,17860,17882,11589,165,52,25,1476,15517,3815,0,0,0,4.9948410987854,1,17816,17683,17608,17582,17598,17572,17633,17753,10173,422,190,25,2129,16152,1628,0,0,0,4.9948410987854,2,11969,12028,12038,11951,11990,11898,11820,11953,30111,316,103,171,1113,-16838,540,0,0,0,4.9948410987854
1,31304,30368,30136,15220,30836,994,16827,1708,-1981,0,-1671,5.019392490386963,0,17640,17741,17812,17902,17732,17822,17791,17838,11206,194,291,34,2739,16209,3475,0,0,0,5.019392490386963,1,17574,17648,17740,17780,17668,17714,17727,17841,10620,124,343,136,3377,15782,1078,0,0,0,5.019392490386963,2,11977,11964,12002,12046,12070,12106,12175,12083,30887,343,142,50,1248,-16967,505,0,0,0,5.019392490386963
1,31300,30412,30104,15428,30716,4265,14997,2577,-1980,0,-1665,5.058701038360596,0,17688,17595,17578,17606,17604,17554,17551,17529,9633,124,163,123,1495,15763,3693,0,0,0,5.058701038360596,1,17742,17737,17783,17991,18099,17970,17985,17966,12201,642,260,183,1853,16309,1094,0,0,0,5.058701038360596,2,12103,12101,12134,12190,12072,12127,12087,12043,31320,160,46,158,1431,-16564,545,0,0,0,5.058701038360596
1,31264,30292,30060,21360,30512,2340,15231,2671,-1978,0,-1658,5.092541694641113,0,17619,17627,17612,17461,17484,17591,17653,17506,9481,198,298,85,2177,15821,3375,0,0,0,5.092541694641113,1,18226,18105,18045,17928,18041,18186,18165,18038,13662,327,329,165,2873,16038,1058,0,0,0,5.092541694641113,2,12187,12181,12203,12080,12074,12059,12110,12191,31549,295,60,99,722,-16822,580,0,0,0,5.092541694641113
1,31284,30304,30088,25088,30092,-1595,14977,201,-1974,0,-1651,5.126194000244141,0,17698,17765,17715,17600,17604,17598,17667,17660,10235,282,130,72,1822,15711,3197,0,0,0,5.126194000244141,1,18274,18372,18220,18203,18036,17963,18065,18217,14278,690,88,138,2563,15863,532,0,0,0,5.126194000244141,2,12062,12034,12099,12234,12331,12149,12203,12184,31760,413,252,163,964,-16758,509,0,0,0,5.126194000244141
1,31252,30348,30192,28140,29108,2996,15771,3750,-1961,0,-1635,5.164177656173706,0,17579,17584,17554,17616,17659,17696,17661,17647,9924,249,28,23,1481,15527,2770,0,0,0,5.164177656173706,1,18620,18638,18606,18418,18367,18374,18336,18346,16633,639,252,121,2497,15681,796,0,0,0,5.164177656173706,2,11974,12039,12064,12036,12058,12151,12185,12082,31052,266,228,38,879,-16192,1376,0,0,0,5.164177656173706
1,30908,30416,30384,28916,28892,2716,15104,4454,-1953,0,-1626,5.195897340774536,0,17797,17822,17798,17698,17636,17636,17687,17700,10702,380,79,33,2036,15387,3050,0,0,0,5.195897340774536,1,18583,18737,18691,18516,18273,17718,17787,17985,15218,2104,380,195,2893,15664,644,0,0,0,5.195897340774536,2,12234,12201,12159,12198,12209,12164,12053,11968,31649,315,304,181,1117,-16451,913,0,0,0,5.195897340774536
1,30108,30448,30560,29336,28944,1885,16681,3433,-1943,0,-1618,5.228949546813965,0,17717,17767,17751,17708,17686,17710,17761,17724,10752,84,117,44,1407,15939,2804,0,0,0,5.228949546813965,1,18094,17923,17785,17923,18314,18705,18840,18558,15070,2082,262,127,3080,15989,763,0,0,0,5.228949546813965,2,12098,12117,12141,12056,12060,12063,12023,11982,31003,209,142,58,1606,-16442,1057,0,0,0,5.228949546813965
1,29256,30528,30668,29616,30196,2892,18829,211,-1944,0,-1620,5.262802839279175,0,18177,18132,18038,18054,18096,18075,18030,18047,13577,127,230,58,2390,15889,3476,0,0,0,5.262802839279175,1,18588,18486,18325,18358,18388,18362,18454,18506,16395,418,197,112,2899,15864,1221,0,0,0,5.262802839279175,2,12241,12281,12240,12240,12230,12168,12135,12201,32200,221,96,41,1021,-17088,373,0,0,0,5.262802839279175
1,28908,30532,30640,29684,30708,12094,17068,13853,-1948,0,-1624,5.290454864501953,0,18411,18321,18360,18389,18445,18489,18462,18341,16146,264,86,119,2678,15785,3411,0,0,0,5.290454864501953,1,18588,18731,18761,18552,18361,18394,18442,18389,17146,758,313,109,3069,16282,1185,0,0,0,5.290454864501953,2,12174,12113,12219,12313,12371,12456,12443,12486,33039,668,258,160,888,-16696,541,0,0,0,5.290454864501953
1,28936,30292,30608,29804,30876,1989,16262,2620,-1935,0,-1611,5.324726581573486,0,18470,18479,18480,18424,18420,18343,18272,18187,16003,472,252,133,1400,16352,3643,0,0,0,5.324726581573486,1,18832,19023,19076,18936,18717,18563,18495,18505,19075,1218,146,106,2766,16442,151,0,0,0,5.324726581573486,2,12673,12576,12576,12482,12483,12463,12430,12402,34549,353,215,166,1071,-17439,1663,0,0,0,5.324726581573486
1,28720,29712,30648,29892,30864,5236,16053,1410,-1918,0,-1596,5.35707950592041,0,18505,18439,18463,18558,18581,18511,18579,18643,17207,236,254,85,2571,16349,2922,0,0,0,5.35707950592041,1,18442,18636,18709,18711,18678,18562,18504,18543,17713,482,108,172,3030,15410,2017,0,0,0,5.35707950592041,2,12569,12614,12546,12281,12205,12169,12200,12275,33323,947,228,60,1232,-15983,540,0,0,0,5.35707950592041
1,27596,29184,30736,29892,31024,1991,16023,3170,-1900,0,-1579,5.388042449951172,0,18502,18477,18411,18457,18565,18533,18575,18586,17034,295,87,119,740,15309,3988,0,0,0,5.388042449951172,1,18493,17970,17868,17900,18079,18075,18055,17917,13285,445,687,486,1123,16654,1059,0,0,0,5.388042449951172,2,12222,12211,12204,12271,12277,12308,12244,12173,32374,196,90,92,1837,-16314,831,0,0,0,5.388042449951172
1,25776,28780,30720,29968,31048,2633,16732,1851,-1905,0,-1582,5.421186447143555,0,18452,18435,18381,18371,18347,18360,18276,18311,15861,231,181,94,1927,16014,3565,0,0,0,5.421186447143555,1,17377,17297,17351,17481,17524,17557,17491,17489,8495,462,130,58,2470,16118,1222,0,0,0,5.421186447143555,2,12077,12154,12192,12203,12245,12323,12374,12419,32450,473,283,220,1402,-16669,562,0,0,0,5.421186447143555
1,23984,28656,30752,29892,30968,2754,16720,743,-1918,0,-1592,5.455469131469727,0,18148,18103,18168,18182,18239,17973,17891,17992,13624,520,342,70,2278,15999,3537,0,0,0,5.455469131469727,1,17785,17373,16955,17004,17390,17682,17846,17931,8894,1951,392,45,2982,16566,576,0,0,0,5.455469131469727,2,12593,12406,12255,12234,12254,12136,12005,12074,32421,693,631,266,755,-17125,1287,0,0,0,5.455469131469727
1,19044,28600,30628,29936,31036,2522,16681,1842,-1914,0,-1587,5.493613958358765,0,17839,17707,17829,17972,18075,18208,18251,18257,13066,1052,355,157,2623,15701,3634,0,0,0,5.493613958358765,1,17222,17262,17317,17383,17464,17473,17400,17336,7785,468,34,68,3482,16000,1704,0,0,0,5.493613958358765,2,12291,12376,12336,12199,12102,12098,12231,12331,32428,522,182,100,490,-17090,1242,0,0,0,5.493613958358765
1,18832,28384,30756,29924,31132,2148,15533,2671,-1897,0,-1570,5.527576446533203,0,17880,17861,17921,17929,17820,17806,17883,17866,11894,133,164,79,1112,15459,3697,0,0,0,5.527576446533203,1,17610,17620,17577,17488,17347,17264,17291,17346,8471,760,102,129,1772,16415,1188,0,0,0,5.527576446533203,2,12527,12545,12521,12419,12326,12285,12171,12158,33416,745,299,202,1497,-16476,922,0,0,0,5.527576446533203
1,19872,25960,30700,29984,31080,4234,15877,91,-1884,0,-1556,5.560051441192627,0,17907,17884,17715,17612,17664,17730,17714,17713,10867,425,322,72,2368,16163,3349,0,0,0,5.560051441192627,1,17445,17485,17531,17483,17482,17492,17428,17456,8730,132,49,89,1395,15755,35,0,0,0,5.560051441192627,2,12356,12360,12294,12252,12247,12258,12255,12252,32738,212,126,49,1128,-16837,853,0,0,0,5.560051441192627
1,28604,20964,30684,30024,31004,2451,15951,748,-1874,0,-1543,5.590967893600464,0,17530,17509,17549,17553,17460,17280,17200,17274,8283,709,243,105,2805,15599,3397,0,0,0,5.590967893600464,1,17620,17430,17541,17633,17730,17826,17802,17678,10188,675,55,147,3520,15566,1161,0,0,0,5.590967893600464,2,12237,12295,12153,12133,12182,12114,12061,12147,31786,285,242,86,2373,-16250,545,0,0,0,5.590967893600464
1,30248,15980,30616,30164,31136,1804,16994,3979,-1870,0,-1538,5.627496242523193,0,17458,17394,17362,17468,17515,17397,17368,17285,8175,224,245,152,531,15271,3894,0,0,0,5.627496242523193,1,17831,17786,17730,17672,17614,17741,17884,18014,11200,610,232,79,1827,16245,212,0,0,0,5.627496242523193,2,12161,12219,12097,12114,12102,12097,12070,12082,31406,183,153,82,1882,-16070,605,0,0,0,5.627496242523193
1,30808,16012,30404,30160,31016,2469,15935,2747,-1855,0,-1521,5.6656718254089355,0,17642,17594,17480,17428,17401,17428,17381,17452,8734,425,230,106,1925,15987,3002,0,0,0,5.6656718254089355,1,18009,18080,18111,18100,18162,18197,18166,18211,13964,267,111,182,2230,16229,1424,0,0,0,5.6656718254089355,2,12248,12191,12261,12198,12162,12104,12063,12139,31830,319,95,115,1900,-16609,377,0,0,0,5.6656718254089355
1,31172,16076,29852,30132,31080,3322,14576,3234,-1851,0,-1517,5.699117660522461,0,17661,17668,17708,17809,17806,17636,17639,17650,10505,311,196,86,1835,15673,3240,0,0,0,5.699117660522461,1,18455,18382,18400,18531,18615,18618,18533,18552,17014,443,160,49,2858,16078,1210,0,0,0,5.699117660522461,2,12262,12302,12316,12192,12144,12142,12130,12170,32122,381,91,60,363,-16379,1010,0,0,0,5.699117660522461
1,31348,16016,28636,30232,31064,2852,17615,91,-1855,0,-1522,5.7324793338775635,0,18167,18227,18238,18204,18155,18111,18001,17980,14011,481,174,88,1640,16355,3189,0,0,0,5.7324793338775635,1,18883,18829,18596,18498,18536,18608,18608,18583,18069,569,415,169,2708,16318,691,0,0,0,5.7324793338775635,2,12329,12362,12382,12347,12327,12270,12324,12408,33213,136,132,112,2551,-16931,1019,0,0,0,5.7324793338775635
1,31440,17276,26832,30232,31040,702,17182,2242,-1861,0,-1525,5.765514850616455,0,18035,17931,18037,18078,18046,18004,18100,18209,13368,209,356,96,4479,15438,3548,0,0,0,5.765514850616455,1,18847,18956,18983,18729,18634,18632,18774,18853,19336,635,276,123,359,15081,-296,0,0,0,5.765514850616455,2,12300,12294,12312,12342,12390,12426,12382,12271,33181,259,107,59,808,-16890,1026,0,0,0,5.765514850616455
1,31384,25204,20840,30236,30968,3908,16112,1103,-1868,0,-1530,5.798254728317261,0,17988,18039,17994,17986,18035,18135,18140,18114,13359,305,133,70,1200,15779,4621,0,0,0,5.798254728317261,1,18793,18817,18826,18819,18821,18828,18819,18836,19487,26,32,41,3845,16306,-572,0,0,0,5.798254728317261,2,12420,12404,12376,12263,12225,12242,12261,12260,32915,384,123,82,2330,-17908,1354,0,0,0,5.798254728317261
1,31400,26976,16276,30292,31100,4041,15693,867,-1878,0,-1537,5.831438064575195,0,18236,18183,18208,18183,18180,18103,18112,18186,14319,189,126,41,2610,15731,3451,0,0,0,5.831438064575195,1,18693,18757,18773,18718,18742,18725,18688,18684,18708,140,84,61,2982,15554,1057,0,0,0,5.831438064575195,2,12118,12171,12215,12250,12163,12206,12225,12259,32071,75,206,33,506,-16717,885,0,0,0,5.831438064575195
1,31456,28532,16248,30320,31096,3223,15997,1570,-1882,0,-1540,5.863599061965942,0,18159,18194,18195,18181,18225,18268,18225,18211,14586,141,78,55,1494,15865,3294,0,0,0,5.863599061965942,1,18418,18523,18519,18512,18440,18345,18374,18384,16443,361,44,91,2851,15918,1455,0,0,0,5.863599061965942,2,12073,12022,11963,12042,12126,12130,12090,12072,30982,249,150,29,1638,-16682,552,0,0,0,5.863599061965942
1,31588,29456,16324,30188,31020,2042,16381,1330,-1880,0,-1536,5.897287368774414,0,18313,18377,18297,18266,18164,18152,18238,18237,14972,373,63,121,1484,15735,3530,0,0,0,5.897287368774414,1,18051,18033,18034,18063,18061,18081,18008,18001,13260,94,86,69,2173,16316,1404,0,0,0,5.897287368774414,2,12139,12081,12083,11996,11940,12004,12051,12012,30769,275,94,133,1294,-16803,873,0,0,0,5.897287368774414
1,31512,30028,16300,29808,30996,2888,16289,1355,-1890,0,-1545,5.9345738887786865,0,18211,18159,18199,18272,18156,18086,18061,18209,14281,242,259,63,1630,15804,3317,0,0,0,5.9345738887786865,1,17943,18008,18075,18004,17920,17809,17865,17880,12432,444,102,35,2160,15790,130,0,0,0,5.9345738887786865,2,12005,11910,11924,11966,11989,11984,12013,12068,30323,216,151,35,751,-16515,1013,0,0,0,5.9345738887786865
1,31508,30284,20488,29448,31036,4793,15830,283,-1895,0,-1547,5.965519905090332,0,18218,18261,18238,18091,18091,18159,18196,18196,14378,276,182,48,1582,15290,3513,0,0,0,5.965519905090332,1,17640,17677,17702,17757,17831,17870,17547,17481,10433,564,380,170,2727,15586,278,0,0,0,5.965519905090332,2,12051,12079,12040,11942,11978,12070,12105,12101,30829,256,157,61,324,-15736,1347,0,0,0,5.965519905090332
1,31444,30432,29188,28116,31044,931,16706,536,-1892,0,-1541,5.999058246612549,0,18263,18314,18330,18367,18327,18229,18201,18185,15144,344,59,59,1702,15566,3450,0,0,0,5.999058246612549,1,17489,17410,17384,17421,17581,17691,17713,17557,9174,653,125,35,3301,16427,1683,0,0,0,5.999058246612549,2,12117,12173,12194,12257,12148,12094,12115,12171,31733,198,166,45,-595,-16992,2494,0,0,0,5.999058246612549
1,31500,30552,30024,24276,31004,3180,16176,1400,-1900,0,-1548,6.033004283905029,0,18074,18013,18042,18077,18090,18150,18079,18053,13506,174,54,106,686,16227,3377,0,0,0,6.033004283905029,1,17349,17349,17339,17380,17416,17277,17213,17172,7423,362,225,77,1251,16230,879,0,0,0,6.033004283905029,2,12099,12114,12164,12276,12241,12213,12118,12109,31798,343,82,46,2351,-16152,561,0,0,0,6.033004283905029
1,31480,30624,30436,19132,31128,2845,16316,1130,-1911,0,-1555,6.0654520988464355,0,17874,17878,17905,17901,17941,17941,17922,17904,12194,126,18,38,1862,15950,3566,0,0,0,6.0654520988464355,1,17234,17262,17325,17365,17401,17403,17398,17249,7565,360,101,57,2469,16025,902,0,0,0,6.0654520988464355,2,12181,12199,12091,12075,12110,12130,12112,12093,31455,133,183,57,671,-17026,931,0,0,0,6.0654520988464355
1,31504,30680,30596,17684,30964,1569,16325,2074,-1916,0,-1557,6.0977561473846436,0,17766,17766,17730,17709,17657,17651,17718,17763,10688,235,60,32,1771,15819,3649,0,0,0,6.0977561473846436,1,17368,17287,17278,17276,17339,17385,17418,17434,7713,328,39,43,1949,16243,1120,0,0,0,6.0977561473846436,2,11976,12017,12018,11922,11900,11935,12047,12068,30347,248,192,86,679,-16636,1278,0,0,0,6.0977561473846436
1,31516,30668,30572,17636,30960,2181,14609,591,-1919,0,-1559,6.1241960525512695,0,17585,17661,17732,17713,17634,17585,17535,17539,9912,392,48,28,1978,15753,3541,0,0,0,6.1241960525512695,1,17368,17287,17278,17276,17339,17385,17418,17434,7713,328,39,43,1949,16243,1120,0,0,0,6.1241960525512695,2,12162,12149,12114,12003,11998,12037,12060,12072,31059,303,111,43,419,-16446,1375,0,0,0,6.1241960525512695
1,31488,30652,30644,17544,30956,3529,17123,192,-1922,0,-1561,6.150838613510132,0,17931,17859,17805,17782,17735,17731,17780,17734,11285,293,109,171,1725,16148,2826,0,0,0,6.150838613510132,1,17680,17602,17698,17791,17752,17748,17738,17708,10645,248,149,90,2614,15795,815,0,0,0,6.150838613510132,2,12240,12218,12227,12249,12231,12221,12276,12206,32332,31,35,87,2189,-16490,697,0,0,0,6.150838613510132
1,31508,30764,30700,21104,30900,2760,17105,1970,-1930,0,-1564,6.184667587280273,0,17747,17723,17651,17665,17678,17694,17669,17692,10447,109,120,35,1066,15262,3745,0,0,0,6.184667587280273,1,17945,17978,18009,18007,18012,17970,17885,17895,12629,251,78,39,1788,16229,1002,0,0,0,6.184667587280273,2,12230,12209,12144,12173,12161,12175,12191,12208,31955,127,56,50,609,-16618,1382,0,0,0,6.184667587280273
1,31492,30660,30652,27224,30764,4149,15730,1755,-1936,0,-1566,6.217619180679321,0,17734,17763,17748,17666,17656,17705,17727,17714,10641,155,122,14,1824,15738,3404,0,0,0,6.217619180679321,1,18325,18381,18241,18184,18104,18183,18246,18186,14778,386,202,164,2508,16144,618,0,0,0,6.217619180679321,2,12275,12310,12309,12213,12160,12164,12168,12199,32262,328,74,35,707,-16615,864,0,0,0,6.217619180679321
1,31420,30560,30580,28184,30536,8620,16258,-1966,-1931,0,-1559,6.251439571380615,0,17716,17739,17806,17778,17739,17641,17717,17771,10835,168,182,88,2162,16130,3117,0,0,0,6.251439571380615,1,18457,18447,18469,18405,18395,18380,18429,18513,16423,186,101,92,3047,16010,656,0,0,0,6.251439571380615,2,12195,12219,12308,12310,12271,12189,12225,12256,32437,170,171,63,941,-16866,1315,0,0,0,6.251439571380615
1,31464,30748,30596,28372,30288,2407,16747,2924,-1928,0,-1554,6.284662485122681,0,17761,17779,17775,17834,17875,17871,17839,17768,11430,240,52,45,1027,15697,3645,0,0,0,6.284662485122681,1,18508,18519,18519,18568,18612,18560,18550,18492,17256,186,54,59,1908,16355,1215,0,0,0,6.284662485122681,2,12143,12141,12148,12281,12343,12382,12327,12192,32421,519,51,78,1466,-16345,995,0,0,0,6.284662485122681
1,31464,30616,30568,28576,29876,6651,14159,4524,-1939,0,-1561,6.323750734329224,0,17874,17848,17786,17782,17865,17983,18041,18043,12150,543,88,83,1602,15684,3761,0,0,0,6.323750734329224,1,18455,18518,18566,18597,18631,18599,18554,18460,17308,334,68,35,2607,16210,292,0,0,0,6.323750734329224,2,12268,12313,12346,12283,12252,12167,12143,12203,32439,368,31,52,696,-16952,847,0,0,0,6.323750734329224
1,31452,30564,30556,28736,29676,3157,16116,2835,-1939,0,-1559,6.355704069137573,0,18158,18180,18094,18058,18020,17979,18016,18055,13488,355,82,66,1540,15605,3297,0,0,0,6.355704069137573,1,18515,18531,18447,18459,18476,18523,18591,18614,17084,292,50,86,2708,15695,380,0,0,0,6.355704069137573,2,12228,12318,12181,12176,12101,12134,12195,12235,32032,307,62,111,1222,-16331,987,0,0,0,6.355704069137573
1,31380,30652,30496,28828,29724,3644,15898,2016,-1942,0,-1558,6.389510154724121,0,18244,18280,18233,18199,18135,18056,18087,18161,14323,409,63,45,1408,15887,3293,0,0,0,6.389510154724121,1,18315,18362,18391,18437,18369,18359,18371,18392,15924,99,133,28,2470,16023,611,0,0,0,6.389510154724121,2,12134,12161,12214,12270,12212,12187,12125,12134,31901,254,56,38,1454,-16729,586,0,0,0,6.389510154724121
1,31380,30568,30468,29044,30292,3760,15792,-3123,-1949,0,-1562,6.422813415527344,0,18272,18319,18277,18252,18203,18073,18140,18139,14603,423,58,119,1441,15741,3666,0,0,0,6.422813415527344,1,18056,18020,17983,18010,18054,18098,18111,18100,13360,247,17,11,2100,16308,427,0,0,0,6.422813415527344,2,12129,12140,12138,12126,12171,12065,12073,12038,31344,187,97,60,770,-16565,1113,0,0,0,6.422813415527344
1,31488,30540,30612,29272,30620,478,16830,2892,-1956,0,-1567,6.45583176612854,0,18134,18159,18204,18258,18336,18387,18392,18305,15103,505,127,74,2049,15830,4478,0,0,0,6.45583176612854,1,17770,17852,17905,17833,17870,17859,17854,17861,11732,89,120,137,2421,16171,299,0,0,0,6.45583176612854,2,12109,12119,12148,12166,12140,12129,12127,12028,31430,175,59,101,83,-16927,1268,0,0,0,6.45583176612854
1,31488,30652,30720,29340,30888,93,16723,2137,-1951,0,-1560,6.492925643920898,0,18253,18167,18243,18278,18273,18244,18356,18374,15116,235,251,34,1695,16321,3916,0,0,0,6.492925643920898,1,17871,17842,17900,17968,17952,17869,17858,17840,12028,221,116,41,2754,15759,-52,0,0,0,6.492925643920898,2,12237,12205,12095,12105,12170,12205,12202,12198,31880,217,153,41,712,-16628,1562,0,0,0,6.492925643920898
1,31444,30636,30572,29372,30808,3382,14094,4138,-1955,0,-1561,6.527947664260864,0,18327,18314,18238,18198,18228,18254,18260,18288,15035,209,99,7,692,15746,3993,0,0,0,6.527947664260864,1,17987,18023,17822,17739,17736,17698,17672,17575,11180,615,467,239,1934,16259,464,0,0,0,6.527947664260864,2,12302,12339,12317,12288,12227,12236,12291,12314,32778,184,83,32,703,-16712,1234,0,0,0,6.527947664260864
1,31504,30644,30692,28076,30220,4426,16164,227,-1963,0,-1566,6.565415143966675,0,18204,18252,18226,18171,18045,18036,18094,18167,14123,422,86,25,1932,16561,3609,0,0,0,6.565415143966675,1,17583,17706,17720,17650,17640,17637,17611,17574,10049,220,160,52,2915,15712,437,0,0,0,6.565415143966675,2,12299,12370,12372,12266,12220,12197,12183,12203,32574,388,104,22,1300,-16573,823,0,0,0,6.565415143966675
1,31520,30632,30672,25984,29928,1168,15724,2597,-1963,0,-1562,6.59758186340332,0,17891,17893,17843,17769,17830,17878,17832,17802,11666,94,205,35,867,15595,3875,0,0,0,6.59758186340332,1,17625,17551,17473,17527,17513,17483,17470,17548,9118,178,199,57,2139,16368,135,0,0,0,6.59758186340332,2,12180,12223,12261,12268,12265,12172,12153,12170,32156,243,53,51,488,-17005,1440,0,0,0,6.59758186340332
1,31452,30644,30732,22360,29900,4666,15863,1075,-1972,0,-1571,6.629383563995361,0,17755,17809,17847,17780,17646,17601,17638,17686,10690,463,100,28,2311,16462,3168,0,0,0,6.629383563995361,1,17521,17512,17480,17378,17360,17442,17468,17496,8585,294,104,53,3095,15653,994,0,0,0,6.629383563995361,2,12115,12163,12210,12261,12273,12316,12280,12181,32262,344,108,19,1132,-17034,627,0,0,0,6.629383563995361
1,31532,30668,30776,18200,30132,3811,15595,3687,-1975,0,-1572,6.660552740097046,0,17646,17651,17682,17668,17656,17615,17553,17573,9972,227,71,48,629,15626,3840,0,0,0,6.660552740097046,1,17503,17531,17534,17552,17527,17551,17607,17638,9371,149,154,70,2144,16477,430,0,0,0,6.660552740097046,2,12269,12294,12210,12194,12189,12267,12304,12305,32496,234,83,38,972,-16381,1469,0,0,0,6.660552740097046
1,31416,30596,30716,16404,30412,2187,15814,3261,-1980,0,-1575,6.6952431201934814,0,17398,17415,17456,17540,17617,17630,17646,17622,9252,507,145,126,1546,16034,3861,0,0,0,6.6952431201934814,1,17653,17633,17564,17578,17681,17699,17692,17701,10129,261,94,68,2640,16456,630,0,0,0,6.6952431201934814,2,12132,12217,12254,12240,12140,12108,12167,12234,31956,180,210,81,458,-16864,1558,0,0,0,6.6952431201934814
1,31512,30684,30748,15936,30564,2304,15825,2424,-1980,0,-1573,6.736006498336792,0,17554,17484,17540,17584,17624,17529,17570,17562,9375,126,149,26,1590,15800,2862,0,0,0,6.736006498336792,1,17941,17998,17958,17918,17877,17813,17928,18030,12391,285,152,147,2778,15898,626,0,0,0,6.736006498336792,2,12354,12423,12428,12401,12334,12279,12283,12259,33225,347,47,60,1585,-16271,1032,0,0,0,6.736006498336792
1,31496,30640,30032,16092,30584,4278,14983,2882,-1966,0,-1560,6.775561571121216,0,17876,17751,17719,17723,17723,17747,17758,17798,11023,227,124,97,1278,15925,3473,0,0,0,6.775561571121216,1,18130,18061,18002,18026,18061,18025,17979,17984,13196,101,223,79,1968,16324,1443,0,0,0,6.775561571121216,2,12347,12277,12268,12367,12438,12397,12296,12215,33069,283,239,113,653,-17096,1196,0,0,0,6.776557922363281
1,31476,30748,28192,16820,30556,4491,14792,1136,-1951,0,-1546,6.807481527328491,0,18168,18148,18114,18064,18017,18022,18144,18164,13769,311,93,49,3163,15095,3291,0,0,0,6.807481527328491,1,18463,18444,18381,18392,18370,18407,18407,18434,16226,151,51,43,3822,15357,-708,0,0,0,6.807481527328491,2,12554,12522,12436,12482,12514,12540,12504,12502,34518,103,149,56,989,-15768,1200,0,0,0,6.807481527328491
1,31544,30724,25708,23632,30700,3356,16140,1745,-1949,0,-1542,6.8419458866119385,0,17894,17856,17911,17936,17966,17918,17897,17879,12185,156,66,21,322,15717,4200,0,0,0,6.8419458866119385,1,18480,18451,18552,18628,18593,18523,18463,18468,17086,315,135,57,1869,16548,1241,0,0,0,6.8419458866119385,2,12632,12415,12385,12319,12267,12347,12425,12480,33734,537,96,204,684,-16869,1053,0,0,0,6.8419458866119385
1,31604,30744,18576,26440,30668,3661,16433,-89,-1948,0,-1540,6.874557733535767,0,18186,18229,18098,17981,17977,18058,18181,18133,13771,442,208,98,2804,16013,3469,0,0,0,6.874557733535767,1,18453,18322,18323,18413,18449,18464,18409,18384,16145,202,170,125,3286,15608,1099,0,0,0,6.874557733535767,2,12324,12319,12365,12286,12334,12285,12273,12370,33019,92,55,157,626,-16897,357,0,0,0,6.874557733535767
1,31616,30704,16864,28000,30708,1955,16710,881,-1937,0,-1527,6.90741229057312,0,18317,18352,18395,18318,18279,18282,18330,18295,15496,148,130,4,1106,15747,3903,0,0,0,6.90741229057312,1,18373,18346,18178,18107,18170,18266,18277,18270,14915,406,250,50,1904,16541,1120,0,0,0,6.90741229057312,2,12326,12358,12329,12347,12387,12260,12281,12222,32974,220,114,117,734,-16918,657,0,0,0,6.90741229057312
1,31524,30612,16800,28712,30696,2242,17014,1914,-1929,0,-1516,6.940740346908569,0,18065,18101,18155,18216,18279,18231,18180,18137,14292,366,22,67,1964,16002,4265,0,0,0,6.940740346908569,1,18122,18209,18231,18120,18088,18011,18070,18115,13894,349,92,103,3455,16253,-765,0,0,0,6.940740346908569,2,11988,12039,12045,12087,12107,12136,12035,12037,30938,224,53,45,-680,-17482,1576,0,0,0,6.940740346908569
1,31568,30124,23164,29264,30864,1631,15179,3632,-1912,0,-1496,6.98216986656189,0,18337,18377,18411,18472,18463,18514,18575,18640,16717,393,288,156,1843,15599,3918,0,0,0,6.98216986656189,1,18029,18058,18052,18122,18206,18131,18041,18019,13586,303,149,53,2745,15551,-197,0,0,0,6.98216986656189,2,12267,12258,12303,12312,12327,12331,12318,12321,32901,128,51,45,750,-16719,772,0,0,0,6.98216986656189
1,31572,29380,27948,29472,30876,3645,15014,1849,-1889,0,-1473,7.014995574951172,0,18249,18240,18200,18143,18108,18069,18025,17996,13958,429,215,133,2534,16054,3873,0,0,0,7.014995574951172,1,17811,17766,17747,17658,17629,17691,17749,17788,10767,329,57,52,2211,15921,1357,0,0,0,7.014995574951172,2,12207,12134,12092,12157,12147,12085,11970,11924,31180,328,322,205,-1152,-16684,1630,0,0,0,7.014995574951172
1,31704,27564,28668,29712,31064,3021,15690,2222,-1855,0,-1444,7.047465562820435,0,18418,18365,18232,18165,18174,18232,18238,18183,14935,358,277,162,881,15612,2840,0,0,0,7.047465562820435,1,17651,17659,17651,17668,17598,17586,17645,17658,10044,117,93,53,1517,15750,1407,0,0,0,7.047465562820435,2,12371,12308,12337,12288,12272,12227,12160,12198,32625,311,154,119,2635,-15955,374,0,0,0,7.047465562820435
1,31772,20876,29152,29844,30972,1388,12906,5546,-1842,0,-1430,7.0796403884887695,0,18055,18015,18001,17881,17778,17792,17922,17983,12355,532,106,47,1016,15327,4200,0,0,0,7.0796403884887695,1,17295,17183,17133,17234,17289,17300,17260,17270,6892,240,192,66,1378,16589,895,0,0,0,7.0796403884887695,2,12061,12129,12279,12344,12308,12211,12035,12030,31860,666,64,86,2360,-16126,44,0,0,0,7.0796403884887695
1,31832,16052,29256,29988,31008,3235,15523,2429,-1858,0,-1441,7.113683462142944,0,17718,17773,17812,17823,17805,17779,17796,17793,11227,117,106,61,1611,15508,3982,0,0,0,7.113683462142944,1,17418,17400,17329,17318,17321,17401,17438,17431,7984,258,59,33,2275,15725,497,0,0,0,7.113683462142944,2,11934,11961,12036,12094,12109,12083,12088,12128,30897,287,195,126,-550,-17117,1605,0,0,0,7.113683462142944
1,31828,15724,29880,30000,31040,3159,16000,984,-1837,0,-1421,7.1536338329315186,0,17694,17616,17556,17655,17756,17770,17682,17684,10341,296,217,26,1953,16220,3273,0,0,0,7.1536338329315186,1,17444,17448,17482,17352,17390,17429,17630,17840,8943,632,420,355,2320,15965,954,0,0,0,7.1536338329315186,2,12170,11938,11957,11942,11900,11967,11996,11969,30303,279,117,271,848,-16455,1235,0,0,0,7.1536338329315186
1,31812,15976,30200,30104,31064,1642,15139,2965,-1819,0,-1403,7.186583042144775,0,17614,17702,17750,17745,17783,17776,17735,17615,10648,317,147,34,1041,15441,4045,0,0,0,7.186583042144775,1,17397,17374,17561,17629,17450,17445,17500,17587,8871,138,451,85,1375,16199,587,0,0,0,7.186583042144775,2,12134,12065,12072,12128,12165,12137,12126,12180,31471,148,146,37,989,-16616,1180,0,0,0,7.186583042144775
1,31664,26024,30496,30076,31028,3915,15484,1371,-1822,0,-1405,7.219323396682739,0,17664,17598,17624,17640,17620,17616,17634,17671,9995,69,100,42,1586,15205,3601,0,0,0,7.219323396682739,1,17671,17553,17543,17687,17846,17764,17730,17912,10634,522,372,221,2120,15973,566,0,0,0,7.219323396682739,2,12402,12409,12348,12166,12098,12092,12099,12124,32202,708,217,109,458,-16858,1028,0,0,0,7.219323396682739
1,31216,29512,30608,30076,31044,3120,17549,-2302,-1824,0,-1406,7.254342079162598,0,17943,17906,17768,17742,17702,17692,17721,17652,11054,420,256,227,1051,16114,4021,0,0,0,7.254342079162598,1,17611,18077,18673,19177,19167,18723,18443,19043,17842,2111,1459,1165,1775,17050,524,0,0,0,7.254342079162598,2,12443,12498,12551,12587,12587,12475,12390,12245,34240,558,166,126,1230,-17101,1151,0,0,0,7.254342079162598
1,29320,30052,30552,30080,31160,1738,15957,2288,-1828,0,-1406,7.285772800445557,0,17951,17945,17900,17751,17622,17597,17667,17839,11200,761,48,53,2025,15361,3917,0,0,0,7.285772800445557,1,18668,18497,18519,18882,19079,18036,18036,18364,17009,1258,1388,425,2880,16139,17,0,0,0,7.285772800445557,2,12539,12448,12435,12497,12465,12387,12300,12162,33697,431,321,304,-222,-16629,1746,0,0,0,7.285772800445557
1,25932,30088,30644,30124,31136,4449,14821,2258,-1844,0,-1418,7.3183252811431885,0,17913,17875,17898,17915,17915,17839,17852,17957,12092,67,176,76,1700,16090,3482,0,0,0,7.3183252811431885,1,18445,18344,18294,18514,18848,18946,18831,18294,17444,1272,510,320,2415,15814,527,0,0,0,7.3183252811431885,2,12340,12402,12457,12525,12286,12349,12422,12426,33671,144,322,112,503,-16706,1175,0,0,0,7.3183252811431885
1,21196,30156,30648,30056,31040,3781,15258,3126,-1847,0,-1418,7.35063624382019,0,17774,17804,17812,17850,17942,18015,18071,18033,12229,569,178,149,759,15338,3490,0,0,0,7.35063624382019,1,18806,18864,18782,18470,18037,18050,18248,18372,16557,1736,200,285,2211,15884,63,0,0,0,7.35063624382019,2,11938,12050,12081,12091,12008,12013,12057,12116,30817,41,240,114,1033,-15895,1768,0,0,0,7.35063624382019
1,16436,30156,30664,30032,31032,3698,15378,3071,-1842,0,-1412,7.383864402770996,0,17966,18024,18064,18119,18128,18207,18243,18268,13947,453,264,148,1179,15502,3440,0,0,0,7.383864402770996,1,18690,18678,18580,18563,18510,18295,18212,18371,16827,836,409,59,2251,15672,240,0,0,0,7.383864402770996,2,12158,12147,12206,12288,12232,12220,12109,12074,31898,339,75,128,896,-16430,975,0,0,0,7.383864402770996
1,16100,30156,30656,30072,31140,3201,15404,2523,-1845,0,-1412,7.417128086090088,0,18205,18217,18218,18141,18089,18066,18124,18106,14094,300,60,50,1606,16011,3620,0,0,0,7.417128086090088,1,18297,18232,18101,18081,18080,18160,18242,18239,14360,429,79,96,2182,15683,758,0,0,0,7.417128086090088,2,12020,12063,12096,12063,12021,12015,11988,12027,30757,167,44,49,951,-16697,906,0,0,0,7.417128086090088
1,16152,30244,30616,30012,31028,797,17201,2151,-1851,0,-1415,7.450207948684692,0,18032,18081,18133,18244,18315,18324,18180,18131,14368,552,45,54,1488,15721,4037,0,0,0,7.450207948684692,1,17876,17970,18129,18202,17893,17936,17942,18137,13013,259,527,117,2821,16684,998,0,0,0,7.450207948684692,2,11791,11685,11697,11704,11784,11820,11880,11977,28802,482,176,139,141,-17468,1558,0,0,0,7.450207948684692
1,21220,30048,30704,30056,31028,2165,15948,2133,-1852,0,-1416,7.484311580657959,0,18587,18518,18436,18511,18558,18455,18443,18429,16865,96,268,117,2394,15767,3515,0,0,0,7.484311580657959,1,17742,17746,17803,17959,17987,17979,18028,18025,12197,567,278,127,2664,16012,148,0,0,0,7.484311580657959,2,12055,12052,12138,12194,12218,12116,12005,12015,31257,397,136,52,-282,-17081,1284,0,0,0,7.484311580657959
1,27544,29632,30648,30104,31064,1948,17026,482,-1842,0,-1408,7.5184948444366455,0,18716,18688,18564,18543,18604,18765,18943,18633,18384,511,334,280,528,15888,3957,0,0,0,7.5184948444366455,1,18053,17973,17980,18066,17979,17972,17747,17663,12361,559,373,362,1238,16462,480,0,0,0,7.5184948444366455,2,12238,12259,12204,12233,12401,12514,12445,12278,33036,549,262,32,1077,-16470,1735,0,0,0,7.5184948444366455
1,28364,27956,30700,30100,31064,3756,16068,1952,-1839,0,-1406,7.554649114608765,0,18486,18363,18346,18376,18421,18443,18488,18521,16372,320,116,25,762,15430,3428,0,0,0,7.554649114608765,1,17493,17538,17506,17498,17524,17522,17458,17464,8931,94,111,22,2238,15491,604,0,0,0,7.554649114608765,2,12059,12091,12191,12320,12333,12267,12144,12129,31997,536,107,39,1695,-15904,1305,0,0,0,7.554649114608765
1,29992,24980,30824,30092,31064,4662,15094,1620,-1845,0,-1408,7.592854022979736,0,18736,18828,18788,18529,18408,18366,18321,18256,17160,1089,410,201,1605,15549,3170,0,0,0,7.592854022979736,1,17244,17137,17192,17200,17171,17150,17224,17336,6582,210,249,74,1966,16332,829,0,0,0,7.592854022979736,2,12229,12381,12197,12376,12453,12517,12627,12640,33883,725,184,347,914,-16681,1543,0,0,0,7.592854022979736
1,30784,18372,30804,30072,31100,3210,16539,1538,-1839,0,-1400,7.627245664596558,0,18089,17976,17938,17993,17846,17872,17983,18023,12648,337,168,177,1772,16023,3548,0,0,0,7.627245664596558,1,17234,17298,17317,17395,17385,17318,17293,17261,7429,280,41,70,3068,16285,14,0,0,0,7.627245664596558,2,12220,12231,12218,12143,12118,12105,11987,11989,31474,436,243,126,80,-16554,2488,0,0,0,7.627245664596558
1,31144,16752,30772,30168,31104,5415,15598,415,-1834,0,-1394,7.6606104373931885,0,18105,18224,18293,18225,18094,17914,17896,17972,13651,796,59,29,1810,16114,3568,0,0,0,7.6606104373931885,1,17416,17294,17328,17398,17517,17553,17493,17525,8452,479,135,108,1928,16009,1471,0,0,0,7.6606104373931885,2,12282,12319,12357,12292,12312,12284,12388,12451,33149,159,205,176,1035,-16688,940,0,0,0,7.6606104373931885
1,31316,16780,30860,30128,31044,1509,16492,2245,-1828,0,-1386,7.692422151565552,0,17854,17789,17715,17744,17748,17610,17537,17542,10467,456,367,152,1099,15825,4511,0,0,0,7.692422151565552,1,17512,17543,17552,17565,17568,17537,17582,17658,9445,92,152,129,1210,16814,1311,0,0,0,7.692422151565552,2,12230,12249,12282,12349,12268,12225,12166,12141,32374,326,52,103,364,-16407,1513,0,0,0,7.692422151565552
1,31384,16744,30796,30212,31080,1775,16730,2745,-1830,0,-1387,7.719400644302368,0,17894,17771,17700,17621,17641,17681,17621,17616,10473,345,303,193,2519,16486,3838,0,0,0,7.719400644302368,1,17719,17725,17788,17805,17835,17800,17835,17896,11331,194,189,145,2948,15812,926,0,0,0,7.719400644302368,2,12227,12248,12273,12306,12370,12414,12317,12334,32953,301,23,103,671,-17623,1470,0,0,0,7.719400644302368
1,31384,16924,30536,30076,31016,4226,14993,1046,-1841,0,-1396,7.752472639083862,0,17708,17747,17697,17693,17545,17479,17603,17560,9960,457,54,201,501,15475,3500,0,0,0,7.752472639083862,1,18090,18173,18199,18204,18127,18086,18128,18189,14124,143,173,87,2481,16009,1283,0,0,0,7.752472639083862,2,12207,12153,12218,12297,12344,12410,12499,12569,33160,667,345,174,841,-16859,1220,0,0,0,7.752472639083862
1,31412,25140,30040,30096,31044,2404,15960,1991,-1840,0,-1393,7.784546613693237,0,17692,17736,17750,17798,17657,17594,17497,17474,10126,589,117,180,1225,15407,3744,0,0,0,7.784546613693237,1,18346,18458,18442,18405,18414,18303,18301,18267,15864,352,90,103,1239,16083,609,0,0,0,7.784546613693237,2,12532,12511,12379,12404,12407,12398,12409,12406,33910,211,180,116,870,-15792,1339,0,0,0,7.784546613693237
1,31328,28488,29124,30152,31044,2846,14037,2931,-1855,0,-1405,7.8171069622039795,0,17497,17498,17451,17536,17718,17818,17673,17593,9712,635,207,56,528,15908,4151,0,0,0,7.8171069622039795,1,18459,18400,18387,18425,18473,18507,18390,18351,16320,144,202,115,3012,16814,1823,0,0,0,7.8171069622039795,2,12326,12375,12417,12386,12285,12307,12342,12342,33244,164,154,24,534,-17297,590,0,0,0,7.8171069622039795
1,31444,29480,26260,30212,31012,3835,16001,1517,-1877,0,-1425,7.849407196044922,0,17362,17359,17399,17498,17588,17604,17607,17604,8949,559,149,133,2973,16139,2855,0,0,0,7.849407196044922,1,18560,18472,18433,18389,18388,18405,18549,18552,16676,381,72,49,2341,15952,-270,0,0,0,7.849407196044922,2,12085,12155,12277,12308,12270,12189,12183,12179,32110,340,177,74,405,-16987,1693,0,0,0,7.849407196044922
1,31484,29716,22552,30284,30992,4316,15683,2126,-1886,0,-1430,7.881950855255127,0,17775,17733,17570,17560,17612,17676,17672,17674,10200,317,227,74,1658,16200,3331,0,0,0,7.881950855255127,1,18510,18522,18542,18552,18642,18731,18791,18621,17839,501,197,61,2419,15981,604,0,0,0,7.881950855255127,2,12216,12182,12125,12198,12228,12268,12328,12254,32262,305,9,103,746,-17016,1344,0,0,0,7.881950855255127
1,31516,29928,19020,30164,31036,2924,15527,3327,-1883,0,-1424,7.915573596954346,0,17648,17693,17731,17730,17722,17760,17758,17749,10719,139,121,52,656,15617,3922,0,0,0,7.915573596954346,1,18302,18251,18304,18276,18304,18313,18386,18412,15476,227,149,79,2290,16233,882,0,0,0,7.915573596954346,2,12152,12173,12099,12095,12077,12175,12192,12125,31552,149,142,89,611,-16365,1222,0,0,0,7.915573596954346
1,31500,30144,16652,30184,31032,4130,16489,1180,-1889,0,-1430,7.947971343994141,0,17890,17854,17932,17901,17843,17749,17763,17809,11669,313,113,48,1073,16568,3437,0,0,0,7.947971343994141,1,18176,18210,18138,18123,18091,18079,18108,18159,14012,225,22,49,1975,15977,849,0,0,0,7.947971343994141,2,12024,12070,12104,12123,12046,12034,12016,12050,30931,171,85,11,1933,-16783,821,0,0,0,7.947971343994141
1,31472,30484,16616,30052,31020,1558,13672,5265,-1904,0,-1441,7.981083631515503,0,17989,18013,18012,17857,17864,17907,17930,17961,12461,285,135,83,795,16104,3374,0,0,0,7.981083631515503,1,17913,17984,18064,18152,18201,18156,18097,17968,13463,540,51,55,1879,16119,312,0,0,0,7.981083631515503,2,11974,11922,12018,12085,12087,12078,11945,11889,30462,375,101,143,1022,-16550,1404,0,0,0,7.981083631515503
1,31500,30564,28484,29628,31048,6311,15892,-2383,-1927,0,-1465,8.013805150985718,0,18051,18107,18168,18252,18140,18174,18221,18299,14340,168,334,79,1522,15367,3828,0,0,0,8.013805150985718,1,17915,17758,17668,17673,17752,17791,17828,17754,11067,310,210,151,2449,15475,-851,0,0,0,8.013805150985718,2,12079,12014,12024,12018,12025,12026,12057,12119,30826,162,99,47,-1166,-16490,2566,0,0,0,8.013805150985718
1,31428,30584,30048,28748,31000,1943,15393,2007,-1927,0,-1465,8.045646905899048,0,18519,18570,18575,18648,18762,18790,18559,18502,17853,503,256,70,1668,15931,3993,0,0,0,8.045646905899048,1,17839,17847,17857,17868,17723,17726,17851,17926,11565,247,264,39,2392,16559,1542,0,0,0,8.045646905899048,2,12200,12236,12221,12194,12269,12261,12213,12126,32183,140,180,22,2118,-16788,-180,0,0,0,8.045646905899048
1,31456,30596,30432,26784,30944,3588,16273,507,-1944,0,-1480,8.08048391342163,0,18465,18475,18539,18581,18603,18739,18792,18676,17798,568,266,18,5,16552,3866,0,0,0,8.08048391342163,1,17629,17613,17615,17618,17608,17577,17580,17688,9856,96,123,79,951,16443,636,0,0,0,8.08048391342163,2,12208,12116,12104,12109,12086,12085,12108,12179,31458,195,119,55,2167,-16221,769,0,0,0,8.08048391342163
1,31484,30696,30628,23556,31020,3557,15553,1072,-1964,0,-1497,8.113743543624878,0,18481,18474,18539,18600,18620,18597,18472,18427,17138,363,100,77,1537,15757,3725,0,0,0,8.113743543624878,1,17366,17374,17385,17471,17554,17504,17295,17261,8138,452,280,62,2244,16057,718,0,0,0,8.113743543624878,2,11993,12033,12032,12032,12028,11973,11952,12009,30516,138,50,64,298,-16814,1396,0,0,0,8.113743543624878
1,31484,30636,30724,20688,30972,2948,15740,1393,-1976,0,-1505,8.14851689338684,0,18378,18377,18374,18385,18487,18509,18479,18411,16328,284,90,34,1706,15342,3870,0,0,0,8.14851689338684,1,17255,17255,17282,17296,17303,17364,17440,17320,7443,274,164,65,2695,16029,237,0,0,0,8.14851689338684,2,12048,11989,11963,12048,12098,12136,12064,12058,30868,257,120,47,-374,-16366,1639,0,0,0,8.14851689338684
1,31500,30596,30744,20180,31008,2793,16346,713,-1984,0,-1511,8.180410623550415,0,18363,18346,18287,18259,18228,18184,18262,18330,15187,312,72,49,1241,15728,3616,0,0,0,8.180410623550415,1,17319,17316,17323,17419,17474,17477,17382,17341,7979,344,93,14,1956,15721,652,0,0,0,8.180410623550415,2,12101,12013,12052,12042,12096,12155,12100,12047,31070,177,90,116,842,-16584,1087,0,0,0,8.180410623550415
1,31504,30584,30752,20184,30984,2117,17567,1589,-1997,0,-1520,8.21375298500061,0,18094,18178,18236,18265,18121,18151,18125,18156,14254,223,172,34,823,15416,4069,0,0,0,8.21375298500061,1,17578,17524,17545,17507,17503,17495,17485,17420,8985,146,105,118,1317,16388,751,0,0,0,8.21375298500061,2,12101,12163,12092,12127,12087,12040,12105,12150,31328,130,74,122,495,-16383,1407,0,0,0,8.21375298500061
1,31556,30648,30704,26576,30940,1144,17669,557,-2011,0,-1528,8.253408193588257,0,18019,17950,17957,18029,18061,17981,17988,18032,12945,82,187,23,1604,15720,4534,0,0,0,8.253408193588257,1,17572,17647,17707,17603,17645,17693,17749,17742,10286,172,239,164,2084,16118,1,0,0,0,8.253408193588257,2,12138,12192,12284,12328,12158,12134,12062,12071,31831,472,88,120,249,-16999,1500,0,0,0,8.253408193588257
1,31516,30628,30616,28404,30592,4725,14600,1994,-2022,0,-1530,8.28568410873413,0,17850,17875,17840,17794,17835,17948,17850,17771,11691,69,258,86,194,15500,3724,0,0,0,8.28568410873413,1,17833,17808,17882,17884,17802,17823,17876,17984,11820,118,267,92,2312,16409,799,0,0,0,8.28568410873413,2,12287,12318,12342,12291,12234,12277,12309,12314,32836,108,130,21,943,-17082,962,0,0,0,8.28568410873413
1,31516,30632,30580,28836,30136,2849,15829,3907,-2036,0,-1537,8.319973230361938,0,17629,17607,17661,17681,17709,17685,17695,17711,10306,158,101,62,1084,15602,3826,0,0,0,8.319973230361938,1,18158,18176,18181,18247,18266,18299,18152,18081,14488,317,172,96,2253,16088,-411,0,0,0,8.319973230361938,2,12209,12232,12295,12325,12334,12245,12202,12229,32535,252,89,58,479,-16345,1798,0,0,0,8.319973230361938
1,31536,30600,30600,28992,29968,4126,14197,4075,-2045,0,-1544,8.354722023010254,0,17571,17577,17518,17512,17524,17521,17513,17514,9178,98,96,33,1978,15792,3300,0,0,0,8.354722023010254,1,18367,18405,18429,18423,18438,18489,18506,18413,16398,188,142,25,2842,15685,324,0,0,0,8.354722023010254,2,12192,12162,12129,12241,12297,12316,12300,12225,32325,350,61,74,68,-16131,1708,0,0,0,8.354722023010254
1,31540,30604,30572,29348,29912,4471,15310,2328,-2029,0,-1527,8.392523527145386,0,17508,17513,17464,17379,17331,17370,17409,17433,8335,337,78,38,1150,15797,3184,0,0,0,8.392523527145386,1,18425,18386,18378,18348,18371,18417,18477,18511,16241,278,81,54,2336,15786,456,0,0,0,8.392523527145386,2,12291,12334,12230,12247,12209,12288,12338,12327,32728,216,83,84,1461,-16151,1284,0,0,0,8.392523527145386
1,31540,30636,30564,29472,30136,5686,11395,4691,-2018,0,-1512,8.427454948425293,0,17456,17477,17483,17389,17407,17419,17503,17581,8643,253,143,148,474,15186,3782,0,0,0,8.427454948425293,1,18432,18365,18224,18193,18303,18378,18389,18463,15675,479,149,63,2273,16022,97,0,0,0,8.427454948425293,2,12359,12394,12261,12207,12105,12168,12225,12265,32447,480,92,98,713,-16246,1718,0,0,0,8.427454948425293
1,31500,30620,30620,29380,30600,1552,14892,2715,-2014,0,-1508,8.461104154586792,0,17617,17576,17654,17649,17554,17527,17502,17520,9527,277,67,122,2004,16759,2539,0,0,0,8.461104154586792,1,18509,18532,18548,18491,18429,18422,18439,18445,16743,252,52,34,2942,16201,33,0,0,0,8.461104154586792,2,12234,12248,12296,12185,12209,12224,12200,12251,32310,110,64,131,900,-17164,2015,0,0,0,8.461104154586792
1,31548,30600,30664,28772,30668,1472,17878,1689,-2012,0,-1504,8.494920015335083,0,17867,17733,17699,17727,17783,17851,17767,17774,11129,187,201,142,1343,15873,3623,0,0,0,8.494920015335083,1,18173,18221,18209,18220,18181,18219,18267,18348,14766,169,176,104,1896,16553,761,0,0,0,8.494920015335083,2,12342,12381,12373,12342,12369,12236,12243,12229,32978,312,105,72,1057,-16878,1339,0,0,0,8.494920015335083
1,31536,30640,30676,25072,30784,1778,17680,1601,-2012,0,-1502,8.528449773788452,0,18056,18158,18093,18032,17889,17894,17953,17943,12946,486,127,117,2063,16230,4251,0,0,0,8.528449773788452,1,18376,18201,18254,18292,18272,18251,18177,18122,14873,169,220,259,1982,16284,642,0,0,0,8.528449773788452,2,12328,12364,12394,12429,12442,12487,12380,12379,33667,239,43,66,435,-16946,1020,0,0,0,8.528449773788452
1,31520,30636,30832,15316,30848,2079,14275,-1263,-2006,0,-1494,8.567494869232178,0,18153,18202,18221,18261,18085,18031,17994,18094,13969,471,124,66,2654,16077,3343,0,0,0,8.567494869232178,1,18290,18268,18051,17827,17780,17821,17868,17848,12681,970,440,214,3025,15786,1448,0,0,0,8.567494869232178,2,12286,12285,12340,12363,12389,12409,12321,12321,33178,223,17,78,393,-17869,488,0,0,0,8.567494869232178
1,31496,30624,30844,15252,30724,2198,16482,2642,-2008,0,-1492,8.600414752960205,0,18145,18161,18121,18105,18167,18178,18142,18199,14146,104,60,95,1347,15966,3634,0,0,0,8.600414752960205,1,17862,17920,17942,17775,17726,17650,17635,17664,11102,627,131,44,1757,16657,852,0,0,0,8.600414752960205,2,12239,12157,12158,12119,12130,12136,12165,12162,31730,155,47,64,779,-16762,1257,0,0,0,8.600414752960205
1,31512,30608,30808,15260,30840,734,17415,3492,-2012,0,-1495,8.634903192520142,0,18272,18384,18360,18309,18215,18257,18311,18344,15380,206,184,59,1825,15778,3388,0,0,0,8.634903192520142,1,17413,17442,17319,17279,17247,17307,17366,17396,7697,345,78,60,2149,16171,1846,0,0,0,8.634903192520142,2,12197,12215,12214,12139,12106,12156,12244,12308,32042,274,172,84,680,-16124,967,0,0,0,8.634903192520142
1,31528,30648,30340,22216,30864,2545,13677,1623,-1996,0,-1482,8.667442560195923,0,18414,18400,18504,18538,18549,18554,18483,18394,16764,345,32,80,743,16024,3641,0,0,0,8.667442560195923,1,17311,17279,17311,17358,17390,17404,17352,17350,7683,212,45,44,2597,16065,77,0,0,0,8.667442560195923,2,12094,12162,12190,12225,12268,12197,12187,12279,32066,171,145,198,2211,-16557,1369,0,0,0,8.667442560195923
1,31556,30656,29748,28080,30888,-1417,17911,2435,-1973,0,-1460,8.700514554977417,0,18489,18558,18528,18522,18538,18536,18512,18513,17124,54,60,58,2305,15750,3497,0,0,0,8.700514554977417,1,17297,17293,17306,17374,17440,17496,17447,17434,8015,408,24,61,3438,16391,583,0,0,0,8.700514554977417,2,12294,12370,12242,12248,12287,12306,12315,12280,32806,90,149,113,591,-16364,1741,0,0,0,8.700514554977417
1,31588,30748,28080,29172,30904,3373,17982,-510,-1969,0,-1454,8.73939299583435,0,18365,18333,18269,18306,18370,18449,18539,18572,16131,549,120,111,573,15787,3466,0,0,0,8.73939299583435,1,17328,17286,17273,17271,17275,17286,17280,17253,7180,40,69,68,1795,16203,980,0,0,0,8.73939299583435,2,12422,12342,12326,12231,12291,12369,12395,12280,33120,191,200,116,873,-17094,694,0,0,0,8.73939299583435
1,31504,30760,25328,29500,30964,2560,16368,1428,-1964,0,-1445,8.77268671989441,0,18273,18324,18293,18371,18319,18286,18328,18331,15453,51,96,100,2070,15886,3527,0,0,0,8.77268671989441,1,17390,17433,17484,17376,17413,17399,17424,17474,8321,71,106,156,2970,16224,444,0,0,0,8.77268671989441,2,12193,12202,12248,12262,12267,12285,12354,12190,32464,215,146,104,104,-16909,1186,0,0,0,8.77268671989441
1,31564,30680,24880,29732,30948,2715,16668,937,-1958,0,-1436,8.80451512336731,0,18074,18065,18148,18241,18089,18080,18007,18037,13669,322,133,140,1157,15652,3583,0,0,0,8.80451512336731,1,17561,17519,17552,17550,17540,17525,17510,17530,9215,51,53,50,3375,15706,818,0,0,0,8.80451512336731,2,12311,12285,12215,12193,12207,12198,12181,12215,32268,197,143,29,1252,-16479,755,0,0,0,8.80451512336731
1,31620,30688,27364,29824,31144,1409,15329,4261,-1951,0,-1427,8.83931851387024,0,17907,17986,17981,17966,17980,18013,17891,17833,12485,248,200,42,903,15914,3889,0,0,0,8.83931851387024,1,17736,17793,17820,17809,17760,17783,17792,17834,11255,17,133,62,2026,16264,113,0,0,0,8.83931851387024,2,12232,12265,12288,12205,12168,12201,12218,12246,32287,162,107,54,-334,-16904,1830,0,0,0,8.83931851387024
1,31592,30508,29292,29896,31020,4700,15821,252,-1944,0,-1420,8.87116551399231,0,17827,17794,17769,17796,17831,17848,17826,17884,11503,158,73,51,1831,16235,3131,0,0,0,8.87116551399231,1,18097,18030,17972,18072,18148,17986,18037,18190,13460,133,340,166,3644,15865,135,0,0,0,8.87116551399231,2,12309,12359,12391,12372,12297,12202,12161,12188,32743,471,54,33,1908,-16867,661,0,0,0,8.87116551399231
1,31616,29992,29796,29968,30992,1325,12636,6440,-1930,0,-1401,8.905975341796875,0,17693,17561,17451,17449,17418,17412,17428,17567,8907,465,235,86,1316,15345,4097,0,0,0,8.905975341796875,1,18314,18397,18280,18198,18216,18340,18380,18309,15362,257,264,65,2944,16327,-423,0,0,0,8.905975341796875,2,12178,12041,12036,12181,12308,12371,12278,12210,32067,602,173,83,-709,-17267,2587,0,0,0,8.905975341796875
1,31664,29004,29948,29996,31152,4113,17084,1196,-1905,0,-1379,8.940633058547974,0,17812,17902,17951,17867,17812,17774,17817,17893,11756,233,166,125,564,16248,3274,0,0,0,8.940633058547974,1,18582,18556,18505,18522,18509,18472,18520,18544,17138,150,76,58,1681,15907,1381,0,0,0,8.940633058547974,2,12392,12381,12287,12313,12375,12550,12660,12767,34189,842,233,196,3052,-16293,160,0,0,0,8.940633058547974
1,31800,24676,29996,30084,31008,1363,17205,1194,-1875,0,-1350,8.983463525772095,0,17603,17597,17585,17619,17606,17482,17457,17385,9262,384,183,143,2137,15915,3287,0,0,0,8.983463525772095,1,18441,18442,18400,18398,18434,18349,18381,18404,16177,111,94,76,2695,16165,1079,0,0,0,8.983463525772095,2,12512,12234,12227,12182,12104,12155,12265,12334,32477,578,177,245,948,-17227,706,0,0,0,8.983463525772095
1,31852,20668,30096,30092,31088,2015,15631,2488,-1879,0,-1352,9.016527652740479,0,17129,17064,17113,17121,17122,17153,17064,17055,5749,107,84,133,681,15637,4128,0,0,0,9.016527652740479,1,18149,18208,18204,18164,18161,18212,18216,18204,14446,45,121,42,1980,16117,963,0,0,0,9.016527652740479,2,12213,12201,12292,12051,12049,11951,11877,11924,31022,726,199,167,684,-16993,1358,0,0,0,9.016527652740479
1,31792,16340,30192,30104,31064,3490,16998,-266,-1868,0,-1342,9.056418180465698,0,17604,17443,17368,17391,17428,17433,17443,17509,8547,306,222,85,3012,16065,2862,0,0,0,9.056418180465698,1,18292,18138,18090,18129,18175,18171,18136,18090,14149,78,257,175,3484,15438,1644,0,0,0,9.056418180465698,2,12158,12159,12096,12056,12078,12089,12077,12107,31283,168,105,7,1568,-16729,730,0,0,0,9.056418180465698
1,31776,17804,30376,30104,31060,2192,16641,876,-1857,0,-1329,9.088472127914429,0,17449,17484,17505,17508,17537,17630,17643,17561,9245,318,168,22,359,15583,3540,0,0,0,9.088472127914429,1,17913,17829,17812,17813,17808,17818,17761,17700,11382,142,199,180,1687,16012,1329,0,0,0,9.088472127914429,2,11938,11966,11960,11961,11884,11879,11951,11999,30001,148,145,42,1996,-16286,781,0,0,0,9.088472127914429
1,31644,27464,30608,30092,31100,2228,15540,1289,-1858,0,-1327,9.121200561523438,0,17760,17745,17795,17894,17940,17922,17916,18004,11904,395,231,155,1077,15794,3793,0,0,0,9.121200561523438,1,17400,17349,17590,17813,17864,17793,17712,17943,10392,865,615,373,1627,16428,650,0,0,0,9.121200561523438,2,11922,11892,11915,11969,11998,11998,11952,12040,30150,190,130,101,566,-16762,991,0,0,0,9.121200561523438
1,31652,29772,30612,30152,31024,796,18516,-163,-1859,0,-1327,9.154159545898438,0,18066,18099,18086,18031,18037,18065,18093,18099,13504,105,83,46,1202,15949,4091,0,0,0,9.154159545898438,1,16550,16758,17122,17635,17898,17975,17834,17505,8205,2735,650,399,2203,16331,1676,0,0,0,9.154159545898438,2,12058,11931,11952,12017,12124,12170,12216,12196,31128,569,112,39,843,-16836,1188,0,0,0,9.154159545898438
1,31476,30080,30632,30100,31024,3096,16491,14,-1861,0,-1328,9.180382013320923,0,18281,18298,18323,18379,18377,18436,18400,18361,15783,262,65,16,2182,15984,3056,0,0,0,9.180382013320923,1,17870,17982,18053,18270,18438,18550,18577,18711,15379,1401,552,514,2566,16473,1388,0,0,0,9.180382013320923,2,12445,12395,12322,12247,12343,12419,12449,12491,33575,408,77,82,149,-16581,1510,0,0,0,9.180382013320923
1,28276,30388,30632,30144,31016,2418,15797,2203,-1856,0,-1317,9.213099002838135,0,18346,18288,18268,18443,18722,18827,18531,18388,16741,999,391,90,3002,16184,3307,0,0,0,9.213099002838135,1,18412,18683,18791,18728,18734,18414,18457,18694,17841,569,340,502,4108,16116,788,0,0,0,9.213099002838135,2,12048,12169,12244,12299,12434,12465,12535,12520,33178,789,349,341,-10,-16199,1477,0,0,0,9.213099002838135
1,24460,30356,30652,30128,31052,2756,14816,4127,-1859,0,-1317,9.248517751693726,0,18802,18907,18931,18862,18729,18590,18583,18587,18919,773,50,82,-24,15377,3790,0,0,0,9.248517751693726,1,17824,17909,18085,18117,17724,17387,17562,17223,10759,1532,108,600,893,16153,466,0,0,0,9.248517751693726,2,12550,12590,12642,12662,12646,12639,12675,12679,35546,142,164,74,1911,-16210,1032,0,0,0,9.248517751693726
1,20836,30364,30584,30076,31040,3540,15977,2519,-1863,0,-1321,9.282793760299683,0,18294,18286,18285,18377,18418,18396,18381,18462,15827,273,163,114,1678,15985,3054,0,0,0,9.282793760299683,1,18042,17933,17677,17645,17788,18173,18230,18207,12623,1219,265,29,3724,15585,-21,0,0,0,9.282793760299683,2,11821,11837,11882,12005,12086,12140,12109,12052,30396,651,116,86,1161,-16307,1320,0,0,0,9.282793760299683
1,19748,30372,30600,30128,31104,3597,15177,2508,-1862,0,-1320,9.315909624099731,0,18289,18313,18328,18267,18237,18228,18201,18217,15008,235,57,41,1692,15497,3674,0,0,0,9.315909624099731,1,17732,17809,17844,17814,17781,17807,17824,17822,11361,44,156,61,2401,15582,529,0,0,0,9.315909624099731,2,12038,12050,11972,11992,12026,12101,12128,12150,30920,316,37,64,707,-16530,975,0,0,0,9.315909624099731
1,19908,30436,30612,30132,31060,1093,16531,1412,-1864,0,-1321,9.34818434715271,0,17954,18009,17973,17944,17906,17810,17828,17859,12211,368,61,64,1349,15788,4215,0,0,0,9.34818434715271,1,17426,17425,17459,17477,17389,17173,17009,17034,7320,946,357,176,2190,15748,747,0,0,0,9.34818434715271,2,12059,12024,12003,11990,11884,11891,11957,11975,30247,299,52,108,832,-16632,1267,0,0,0,9.34818434715271
1,23840,30236,30660,30088,31088,3153,13985,2530,-1879,0,-1335,9.381315469741821,0,17569,17555,17611,17748,17783,17722,17639,17616,10171,428,134,4,2894,15937,4601,0,0,0,9.381315469741821,1,17533,17418,17276,17271,17224,17236,17289,17364,7539,505,192,137,2463,16402,366,0,0,0,9.381315469741821,2,11569,11555,11673,11762,11811,11919,11777,11858,28388,608,161,227,-1488,-17570,1934,0,0,0,9.381315469741821
1,29080,29868,30624,30108,31088,5138,15611,-958,-1873,0,-1338,9.416395664215088,0,18240,18198,18187,18155,18138,18170,18235,18281,14532,241,80,22,1108,15785,4202,0,0,0,9.416395664215088,1,17852,17892,17928,17864,17732,17736,17903,17950,11785,300,309,56,487,16213,1411,0,0,0,9.416395664215088,2,12346,12377,12398,12516,12557,12519,12504,12483,34164,381,103,91,1415,-16287,265,0,0,0,9.416395664215088
1,30160,28836,30684,30084,31008,2117,17413,232,-1852,0,-1322,9.449931621551514,0,17707,17685,17725,17679,17682,17620,17664,17791,10481,152,165,137,-161,15150,3842,0,0,0,9.449931621551514,1,17929,17863,17672,17745,17875,17913,18000,18068,11993,641,137,153,1512,16707,1700,0,0,0,9.449931621551514,2,12419,12366,12554,12514,12366,12284,12259,12279,33505,522,145,176,2225,-15852,1953,0,0,0,9.449931621551514
1,30404,27916,30708,30168,31032,4286,15475,-135,-1855,0,-1323,9.483325481414795,0,17474,17503,17586,17628,17661,17624,17597,17535,9536,339,60,36,1821,15141,3938,0,0,0,9.483325481414795,1,17809,17875,17874,17819,17801,17855,17817,17825,11603,71,118,48,1009,16030,858,0,0,0,9.483325481414795,2,12316,12349,12309,12244,12200,12200,12230,12285,32596,294,30,18,-867,-16306,1710,0,0,0,9.483325481414795
1,30640,26224,30824,30144,31136,4335,15808,-718,-1862,0,-1329,9.5176682472229,0,17588,17467,17317,17351,17370,17416,17374,17376,8187,274,309,180,2298,15817,3985,0,0,0,9.5176682472229,1,17874,17884,17960,18011,18003,17831,17772,17812,12075,433,180,27,2529,15637,907,0,0,0,9.5176682472229,2,12223,12325,12359,12369,12206,12186,12071,11915,32118,736,227,273,-138,-16589,1505,0,0,0,9.5176682472229
1,31304,25196,30724,30092,31028,2190,17137,-536,-1857,0,-1321,9.559632539749146,0,17715,17758,17767,17518,17419,17541,17651,17718,10015,604,290,103,570,15828,4096,0,0,0,9.559632539749146,1,18023,17923,17876,17922,17936,17907,17971,17954,12440,161,121,99,294,16370,1159,0,0,0,9.559632539749146,2,12231,12234,12286,12269,11950,11898,11910,12013,31255,863,150,228,842,-16622,1867,0,0,0,9.559632539749146
1,31520,25152,30808,30040,31148,2574,16039,395,-1855,0,-1316,9.592700958251953,0,17704,17541,17505,17591,17712,17778,17568,17594,9921,290,368,190,1328,15465,4409,0,0,0,9.592700958251953,1,18324,18268,18236,18251,18342,18450,18310,18338,15447,277,176,126,1654,16397,821,0,0,0,9.592700958251953,2,12224,12219,12171,12220,12257,12113,12099,12040,31807,287,222,131,-458,-16595,2150,0,0,0,9.592700958251953
1,31592,25212,30732,30084,31016,3395,15955,243,-1852,0,-1311,9.625906944274902,0,17682,17557,17672,17702,17712,17855,17919,17845,10872,576,238,102,937,15912,4205,0,0,0,9.625906944274902,1,18549,18555,18547,18442,18397,18461,18535,18567,16981,307,136,34,1970,15987,-432,0,0,0,9.625906944274902,2,12173,12274,12240,12189,12133,12170,12111,12146,31900,247,117,25,167,-17067,2793,0,0,0,9.625906944274902
1,31644,25208,30332,30080,31036,5202,15418,-477,-1840,0,-1301,9.6606285572052,0,18248,18276,18273,18197,18100,17994,17990,18141,14147,605,108,45,976,15453,3486,0,0,0,9.6606285572052,1,18756,18857,18927,18869,18728,18646,18560,18462,18733,811,172,180,1375,16080,1357,0,0,0,9.6606285572052,2,12473,12407,12397,12373,12324,12366,12474,12572,33850,370,187,40,1329,-15922,877,0,0,0,9.6606285572052
1,31592,25132,28748,30160,30976,3963,15408,1668,-1839,0,-1297,9.699652194976807,0,18027,18050,18051,18177,18254,17933,17796,17693,12909,836,448,173,1038,15609,4576,0,0,0,9.699652194976807,1,18851,18762,18732,18742,18721,18447,18407,18341,17931,834,450,263,2535,17571,71,0,0,0,9.699652194976807,2,12332,12330,12179,12060,12074,12090,12139,12205,31873,540,178,30,-1012,-17096,1738,0,0,0,9.699652194976807
1,31588,25220,26000,30220,31024,4575,17136,-3560,-1848,0,-1306,9.733511924743652,0,18025,18111,18169,18180,18148,18196,18227,18233,14217,213,246,107,2682,15716,3738,0,0,0,9.733511924743652,1,18343,18410,18414,18388,18354,18412,18409,18339,15997,60,157,37,3422,15741,-854,0,0,0,9.733511924743652,2,12196,12206,12236,12144,12103,12127,12171,12230,31877,218,115,73,-688,-16265,873,0,0,0,9.733511924743652
1,31548,28116,25200,30156,31152,2663,16982,325,-1853,0,-1307,9.765577793121338,0,18234,18136,18127,18152,18191,18174,18095,18102,14139,44,210,107,1089,16375,4677,0,0,0,9.765577793121338,1,18032,18012,17996,18026,18055,18052,17956,17927,12984,146,174,75,1549,17241,2293,0,0,0,9.765577793121338,2,11988,12067,12128,12144,12090,12089,12048,12141,31158,136,162,125,895,-17834,840,0,0,0,9.765577793121338
1,31536,29488,25168,30136,31096,2525,16794,670,-1858,0,-1310,9.798917531967163,0,18122,18179,18199,18246,18217,18170,18159,18065,14285,278,42,98,2000,16215,4480,0,0,0,9.798917531967163,1,17777,17804,17790,17771,17817,17901,17921,17898,11607,290,122,67,2678,16625,982,0,0,0,9.798917531967163,2,12019,11924,11963,12039,12060,12083,12000,12035,30587,214,133,103,-328,-17691,1303,0,0,0,9.798917531967163
