uLabel,h1,h2,h3,h4,h5,ax,ay,az,uL dev_yaw,uL dev_pitch,uL dev_roll,uL Timestamp,uMyo1,uM1 d1,uM1 d2,uM1 d3,uM1 d4,uM1 d5,uM1 d6,uM1 d7,uM1 d8,uM1 ds1,uM1 ds2,uM1 ds3,uM1 ds4,uM1 ax,uM1 ay,uM1 az,uM1 dev_yaw,uM1 dev_pitch,uM1 dev_roll,uM1 Timestamp,uMyo2,uM2 d1,uM2 d2,uM2 d3,uM2 d4,uM2 d5,uM2 d6,uM2 d7,uM2 d8,uM2 ds1,uM2 ds2,uM2 ds3,uM2 ds4,uM2 ax,uM2 ay,uM2 az,uM2 dev_yaw,uM2 dev_pitch,uM2 dev_roll,uM2 Timestamp,uMyo3,uM3 d1,uM3 d2,uM3 d3,uM3 d4,uM3 d5,uM3 d6,uM3 d7,uM3 d8,uM3 ds1,uM3 ds2,uM3 ds3,uM3 ds4,uM3 ax,uM3 ay,uM3 az,uM3 dev_yaw,uM3 dev_pitch,uM3 dev_roll,uM3 Timestamp,,,,,,,,,,,,,,,,,,,,,,,,,,,,,,,,,,,,,,,,,,,,,,,,,,,,,,,,,,,,,,,,,,,,,,,,,,,,,,,,,,,,,,,,,,,,,,,,,,,,,,,,,,,,,,,,,,,,,,,,
1,31560,30392,30556,29692,28740,39,-198,16845,-149,0,216,1709870367,0,12021,12047,12017,12056,12073,12061,12001,11912,30652,196,159,96,13545,9890,-1284,0,0,0,1709870367,1,17917,17887,17807,17698,17693,17734,17759,17810,11233,418,121,41,11446,-12635,4498,0,0,0,1709870367,2,17653,17719,17747,17723,17788,17847,17854,17805,11064,305,164,110,5789,-10715,-11629,0,0,0,1709870367,,,,,,,,,,,,,,,,,,,,,,,,,,,,,,,,,,,,,,,,,,,,,,,,,,,,,,,,,,,,,,,,,,,,,,,,,,,,,,,,,,,,,,,,,,,,,,,,,,,,,,,,,,,,,,,,,,,,,,,,
1,31600,30444,30484,29772,30212,39,-198,16845,-149,0,216,1709870368,0,11662,11578,11523,11448,11456,11492,11540,11595,26758,375,61,48,12146,12776,-4061,0,0,0,1709870368,1,17027,17097,17178,17206,17255,17294,17259,17165,6409,440,156,66,8525,-13578,7423,0,0,0,1709870368,2,16737,16592,16479,16487,16585,16714,16812,16972,2306,864,156,142,7968,-13310,-9096,0,0,0,1709870368,,,,,,,,,,,,,,,,,,,,,,,,,,,,,,,,,,,,,,,,,,,,,,,,,,,,,,,,,,,,,,,,,,,,,,,,,,,,,,,,,,,,,,,,,,,,,,,,,,,,,,,,,,,,,,,,,,,,,,,,
1,31508,30516,30500,29988,30976,39,-198,16845,-149,0,216,1709870368,0,11878,11919,11953,12005,12080,12151,12132,12052,30634,502,127,73,14006,10344,-3606,0,0,0,1709870368,1,17790,17860,17867,17776,17707,17709,17698,17700,11035,356,115,31,10233,-10209,6351,0,0,0,1709870368,2,17681,17748,17809,17850,17895,17880,17791,17773,11355,362,24,87,6119,-9167,-11115,0,0,0,1709870368,,,,,,,,,,,,,,,,,,,,,,,,,,,,,,,,,,,,,,,,,,,,,,,,,,,,,,,,,,,,,,,,,,,,,,,,,,,,,,,,,,,,,,,,,,,,,,,,,,,,,,,,,,,,,,,,,,,,,,,,
1,31520,30564,30484,30104,31036,39,-198,16845,-149,0,216,1709870368,0,12188,12200,12105,12060,12161,12191,12195,12180,31744,205,158,65,13651,5962,-2119,0,0,0,1709870368,1,18190,18177,18158,18154,18261,18299,18355,18304,14826,392,64,90,11667,-7863,4249,0,0,0,1709870368,2,18529,18569,18601,18605,18677,18671,18639,18741,17960,240,111,215,5408,-6125,-11979,0,0,0,1709870368,,,,,,,,,,,,,,,,,,,,,,,,,,,,,,,,,,,,,,,,,,,,,,,,,,,,,,,,,,,,,,,,,,,,,,,,,,,,,,,,,,,,,,,,,,,,,,,,,,,,,,,,,,,,,,,,,,,,,,,,
1,31476,30460,30516,30008,30968,39,-198,16845,-149,0,216,1709870368,0,12259,12374,12368,12350,12227,12205,12255,12232,32734,323,137,90,11616,6622,-5115,0,0,0,1709870368,1,21129,20988,20964,20890,20887,20913,20902,20831,36432,297,234,232,13058,-8520,6384,0,0,0,1709870368,2,18712,18673,18719,18669,18687,18746,18846,18903,18883,371,225,126,9744,-7535,-10973,0,0,0,1709870368,,,,,,,,,,,,,,,,,,,,,,,,,,,,,,,,,,,,,,,,,,,,,,,,,,,,,,,,,,,,,,,,,,,,,,,,,,,,,,,,,,,,,,,,,,,,,,,,,,,,,,,,,,,,,,,,,,,,,,,,
1,31568,30472,30572,28756,29124,39,-198,16845,-149,0,216,1709870368,0,12878,12915,12797,12688,12733,12810,12728,12762,36774,286,288,50,11769,5365,-5008,0,0,0,1709870368,1,15287,15310,15306,15288,15349,15502,15625,15574,57705,657,299,129,13694,-7519,6135,0,0,0,1709870368,2,19022,19164,19300,19384,19303,19074,18979,18961,22115,856,116,61,9989,-5808,-11132,0,0,0,1709870368,,,,,,,,,,,,,,,,,,,,,,,,,,,,,,,,,,,,,,,,,,,,,,,,,,,,,,,,,,,,,,,,,,,,,,,,,,,,,,,,,,,,,,,,,,,,,,,,,,,,,,,,,,,,,,,,,,,,,,,,
1,31552,30516,30528,29448,30120,39,-198,16845,-149,0,216,1709870368,0,11994,11968,11970,11903,11817,11762,11839,11894,29611,424,67,43,12991,6247,-7609,0,0,0,1709870368,1,16980,16960,17078,17118,17078,17084,17170,17232,5628,280,360,118,13213,-7545,9271,0,0,0,1709870368,2,16519,16466,16526,16576,16624,16451,16494,16517,1101,160,214,76,11674,-6652,-10462,0,0,0,1709870368,,,,,,,,,,,,,,,,,,,,,,,,,,,,,,,,,,,,,,,,,,,,,,,,,,,,,,,,,,,,,,,,,,,,,,,,,,,,,,,,,,,,,,,,,,,,,,,,,,,,,,,,,,,,,,,,,,,,,,,,
1,31512,30512,30624,27728,31004,39,-198,16845,-149,0,216,1709870368,0,12346,12193,12080,12094,12153,12216,12256,12266,32068,433,170,95,12017,5246,-10041,0,0,0,1709870368,1,20601,20551,20491,20442,20430,20479,20587,20617,33126,384,55,23,14005,-5633,10639,0,0,0,1709870368,2,17243,17119,17072,17086,17184,17288,17267,17162,6349,368,181,126,14044,-6138,-9757,0,0,0,1709870368,,,,,,,,,,,,,,,,,,,,,,,,,,,,,,,,,,,,,,,,,,,,,,,,,,,,,,,,,,,,,,,,,,,,,,,,,,,,,,,,,,,,,,,,,,,,,,,,,,,,,,,,,,,,,,,,,,,,,,,,
1,31556,30528,30800,26184,30960,39,-198,16845,-149,0,216,1709870368,0,12057,12160,12193,12207,12076,12093,12064,12230,31544,166,221,128,11133,4473,-10277,0,0,0,1709870368,1,18521,18528,18480,18558,18614,18580,18465,18351,17025,302,275,130,12334,-4297,11291,0,0,0,1709870368,2,18612,18559,18369,18242,18299,18366,18406,18375,16156,543,336,114,13388,-5189,-8170,0,0,0,1709870368,,,,,,,,,,,,,,,,,,,,,,,,,,,,,,,,,,,,,,,,,,,,,,,,,,,,,,,,,,,,,,,,,,,,,,,,,,,,,,,,,,,,,,,,,,,,,,,,,,,,,,,,,,,,,,,,,,,,,,,,
1,31476,30548,30508,29208,31080,39,-198,16845,-149,0,216,1709870368,0,11820,11779,11778,11794,11838,11929,11797,11837,29036,181,113,130,10197,4443,-10359,0,0,0,1709870368,1,17285,17337,17237,17305,17271,17129,17112,17231,6835,342,218,109,9736,-3294,12425,0,0,0,1709870368,2,18048,18157,18206,18044,18065,17959,18033,18125,13565,312,136,232,13065,-4584,-6778,0,0,0,1709870368,,,,,,,,,,,,,,,,,,,,,,,,,,,,,,,,,,,,,,,,,,,,,,,,,,,,,,,,,,,,,,,,,,,,,,,,,,,,,,,,,,,,,,,,,,,,,,,,,,,,,,,,,,,,,,,,,,,,,,,,
1,31508,30580,27976,29528,31000,39,-198,16845,-149,0,216,1709870369,0,11901,11941,11969,12144,12271,12325,12199,12090,31304,822,32,60,9660,4816,-10936,0,0,0,1709870369,1,18512,18494,18457,18548,18572,18529,18318,18142,16500,547,454,280,10982,-3799,12208,0,0,0,1709870369,2,17936,17805,17737,17843,17879,17920,17748,17791,11587,82,342,178,14486,-5331,-6585,0,0,0,1709870369,,,,,,,,,,,,,,,,,,,,,,,,,,,,,,,,,,,,,,,,,,,,,,,,,,,,,,,,,,,,,,,,,,,,,,,,,,,,,,,,,,,,,,,,,,,,,,,,,,,,,,,,,,,,,,,,,,,,,,,,
1,31568,30708,29860,29604,30956,39,-198,16845,-149,0,216,1709870369,0,12184,12212,12107,12108,12082,11958,11963,12128,31206,428,206,94,10350,5003,-10622,0,0,0,1709870369,1,17417,17244,17244,17345,17366,17379,17326,17286,7535,160,213,190,10882,-4458,11862,0,0,0,1709870369,2,17916,17947,17846,17752,17798,17887,17898,17856,11828,248,227,20,14293,-5670,-6772,0,0,0,1709870369,,,,,,,,,,,,,,,,,,,,,,,,,,,,,,,,,,,,,,,,,,,,,,,,,,,,,,,,,,,,,,,,,,,,,,,,,,,,,,,,,,,,,,,,,,,,,,,,,,,,,,,,,,,,,,,,,,,,,,,,
1,31512,30472,30320,29748,31124,39,-198,16845,-149,0,216,1709870369,0,12127,11978,11735,11310,11725,12015,12114,12116,29583,1358,567,259,9899,4020,-11082,0,0,0,1709870369,1,18075,18205,18185,18125,18210,18360,18378,18335,14801,461,297,185,11234,-3920,12016,0,0,0,1709870369,2,17870,17910,17833,17706,17642,17713,17907,17980,11489,575,236,106,14360,-5108,-6694,0,0,0,1709870369,,,,,,,,,,,,,,,,,,,,,,,,,,,,,,,,,,,,,,,,,,,,,,,,,,,,,,,,,,,,,,,,,,,,,,,,,,,,,,,,,,,,,,,,,,,,,,,,,,,,,,,,,,,,,,,,,,,,,,,,
1,31652,28480,30244,29844,31068,39,-198,16845,-149,0,216,1709870369,0,11287,10879,10942,11498,12015,12401,12521,12294,28300,3449,536,222,10510,5108,-11804,0,0,0,1709870369,1,18756,18671,18430,17952,17653,17488,17367,17346,12591,2775,1056,723,11754,-3916,12498,0,0,0,1709870369,2,17847,17801,17783,17825,18103,18248,18265,18235,13035,1123,98,261,14202,-5453,-6795,0,0,0,1709870369,,,,,,,,,,,,,,,,,,,,,,,,,,,,,,,,,,,,,,,,,,,,,,,,,,,,,,,,,,,,,,,,,,,,,,,,,,,,,,,,,,,,,,,,,,,,,,,,,,,,,,,,,,,,,,,,,,,,,,,,
1,31700,26400,30112,29856,31044,39,-198,16845,-149,0,216,1709870369,0,12353,12419,12253,12284,12265,12357,12391,12358,33144,235,136,129,10633,4492,-11795,0,0,0,1709870369,1,16326,16427,16518,16515,16445,16348,16365,16376,248,346,161,76,10639,-3512,12628,0,0,0,1709870369,2,18402,18425,18432,18486,18501,18551,18497,18534,16756,243,51,72,13760,-4539,-7270,0,0,0,1709870369,,,,,,,,,,,,,,,,,,,,,,,,,,,,,,,,,,,,,,,,,,,,,,,,,,,,,,,,,,,,,,,,,,,,,,,,,,,,,,,,,,,,,,,,,,,,,,,,,,,,,,,,,,,,,,,,,,,,,,,,
1,31452,30560,30524,30000,31004,39,-198,16845,-149,0,216,1709870369,0,12025,12064,12038,12112,12079,12143,12095,11974,30994,208,124,140,10667,4682,-11521,0,0,0,1709870369,1,18497,18553,18490,18398,18435,18592,18672,18582,17147,377,283,47,11547,-3838,11869,0,0,0,1709870369,2,18067,18075,18074,17968,17914,17931,18114,18204,13275,434,265,118,14507,-4952,-7005,0,0,0,1709870369,,,,,,,,,,,,,,,,,,,,,,,,,,,,,,,,,,,,,,,,,,,,,,,,,,,,,,,,,,,,,,,,,,,,,,,,,,,,,,,,,,,,,,,,,,,,,,,,,,,,,,,,,,,,,,,,,,,,,,,,
1,29768,30440,30572,30000,31048,39,-198,16845,-149,0,216,1709870369,0,12124,12249,12199,12060,11863,11833,11840,11869,30501,893,161,123,9017,4519,-10135,0,0,0,1709870369,1,20256,20198,20202,20081,19958,19862,19825,19429,28739,1078,580,612,12260,-4019,11350,0,0,0,1709870369,2,17137,17176,17248,17321,17478,17717,17292,17344,7641,834,240,355,13992,-5134,-8074,0,0,0,1709870369,,,,,,,,,,,,,,,,,,,,,,,,,,,,,,,,,,,,,,,,,,,,,,,,,,,,,,,,,,,,,,,,,,,,,,,,,,,,,,,,,,,,,,,,,,,,,,,,,,,,,,,,,,,,,,,,,,,,,,,,
1,32168,29760,30780,30032,31088,39,-198,16845,-149,0,216,1709870369,0,12135,12131,12244,12403,12391,12292,12123,12141,32323,587,199,65,9802,3705,-10763,0,0,0,1709870369,1,17025,16906,16674,16650,16664,16659,16709,16826,3041,660,318,105,11543,-4126,11363,0,0,0,1709870369,2,17966,18044,18145,18276,18005,18037,18007,17975,13383,433,248,186,13604,-4575,-7737,0,0,0,1709870369,,,,,,,,,,,,,,,,,,,,,,,,,,,,,,,,,,,,,,,,,,,,,,,,,,,,,,,,,,,,,,,,,,,,,,,,,,,,,,,,,,,,,,,,,,,,,,,,,,,,,,,,,,,,,,,,,,,,,,,,
1,31208,30392,30532,30020,31072,39,-198,16845,-149,0,216,1709870369,0,13669,13183,12570,11163,11038,11359,12048,12792,32285,5115,593,428,8964,4301,-12154,0,0,0,1709870369,1,18040,17979,18103,18389,18500,18606,18631,18642,15818,1359,486,217,10645,-2937,12815,0,0,0,1709870369,2,18166,18142,18192,18339,18479,18510,18336,18051,15143,802,286,174,14068,-4121,-6000,0,0,0,1709870369,,,,,,,,,,,,,,,,,,,,,,,,,,,,,,,,,,,,,,,,,,,,,,,,,,,,,,,,,,,,,,,,,,,,,,,,,,,,,,,,,,,,,,,,,,,,,,,,,,,,,,,,,,,,,,,,,,,,,,,,
1,31676,26608,30700,30032,31016,39,-198,16845,-149,0,216,1709870370,0,12318,11724,11575,11771,12095,12465,12847,13215,32474,2907,797,386,10321,4315,-12128,0,0,0,1709870370,1,19288,19403,19544,19668,19399,19102,18776,18711,22819,1754,388,373,9799,-2685,13783,0,0,0,1709870370,2,18682,18870,18925,18890,18853,18919,18923,18733,19723,326,354,78,14187,-4514,-6641,0,0,0,1709870370,,,,,,,,,,,,,,,,,,,,,,,,,,,,,,,,,,,,,,,,,,,,,,,,,,,,,,,,,,,,,,,,,,,,,,,,,,,,,,,,,,,,,,,,,,,,,,,,,,,,,,,,,,,,,,,,,,,,,,,,
1,31632,26960,30648,30020,31016,39,-198,16845,-149,0,216,1709870370,0,12068,12106,12070,11876,11858,11886,11934,12008,30269,499,133,83,10363,4258,-11998,0,0,0,1709870370,1,18614,18578,18422,18384,18383,18389,18379,18377,16454,402,284,140,10395,-2888,12731,0,0,0,1709870370,2,17543,17584,17615,17667,17551,17592,17520,17386,9386,357,129,219,14183,-4708,-7047,0,0,0,1709870370,,,,,,,,,,,,,,,,,,,,,,,,,,,,,,,,,,,,,,,,,,,,,,,,,,,,,,,,,,,,,,,,,,,,,,,,,,,,,,,,,,,,,,,,,,,,,,,,,,,,,,,,,,,,,,,,,,,,,,,,
1,31536,30444,30268,30056,31044,39,-198,16845,-149,0,216,1709870370,0,12045,11960,11873,11907,11976,12044,11921,11934,30124,129,279,113,9754,3761,-11312,0,0,0,1709870370,1,17169,17243,17174,17200,17004,17012,17123,17228,6081,398,212,94,11283,-2671,12291,0,0,0,1709870370,2,17271,17107,17128,17222,17357,17359,17279,17077,6728,431,277,208,14766,-4588,-7165,0,0,0,1709870370,,,,,,,,,,,,,,,,,,,,,,,,,,,,,,,,,,,,,,,,,,,,,,,,,,,,,,,,,,,,,,,,,,,,,,,,,,,,,,,,,,,,,,,,,,,,,,,,,,,,,,,,,,,,,,,,,,,,,,,,
1,31496,30852,29672,30300,31004,39,-198,16845,-149,0,216,1709870370,0,12354,12296,12158,12175,12202,12227,12241,12278,32395,293,171,66,9752,4033,-11651,0,0,0,1709870370,1,17734,17813,17879,17898,17973,17853,17883,17798,11759,340,62,147,9827,-2719,13185,0,0,0,1709870370,2,17770,17767,17817,17687,17712,17849,17959,17987,11476,463,299,160,14388,-4272,-6530,0,0,0,1709870370,,,,,,,,,,,,,,,,,,,,,,,,,,,,,,,,,,,,,,,,,,,,,,,,,,,,,,,,,,,,,,,,,,,,,,,,,,,,,,,,,,,,,,,,,,,,,,,,,,,,,,,,,,,,,,,,,,,,,,,,
1,31532,30628,28188,30128,31048,39,-198,16845,-149,0,216,1709870370,0,12266,12302,12282,12186,12100,12096,12099,12093,31887,464,119,90,10677,3824,-11328,0,0,0,1709870370,1,18464,18515,18566,18561,18566,18636,18743,18601,17580,331,279,77,11149,-2924,12272,0,0,0,1709870370,2,18797,18858,18620,18582,18513,18532,18645,18674,18149,596,141,190,14289,-4389,-6319,0,0,0,1709870370,,,,,,,,,,,,,,,,,,,,,,,,,,,,,,,,,,,,,,,,,,,,,,,,,,,,,,,,,,,,,,,,,,,,,,,,,,,,,,,,,,,,,,,,,,,,,,,,,,,,,,,,,,,,,,,,,,,,,,,,
1,31536,30552,30532,28572,30988,39,-198,16845,-149,0,216,1709870370,0,12097,12045,12036,12087,11991,11995,12008,11961,30684,161,44,186,10168,4031,-10959,0,0,0,1709870370,1,18209,18219,18236,18245,18381,18486,18356,18276,15336,473,184,90,10812,-2953,12260,0,0,0,1709870370,2,18323,18307,18345,18233,18232,18275,18292,18263,15198,145,118,69,13771,-4105,-6821,0,0,0,1709870370,,,,,,,,,,,,,,,,,,,,,,,,,,,,,,,,,,,,,,,,,,,,,,,,,,,,,,,,,,,,,,,,,,,,,,,,,,,,,,,,,,,,,,,,,,,,,,,,,,,,,,,,,,,,,,,,,,,,,,,,
1,31484,30556,30740,27612,31008,39,-198,16845,-149,0,216,1709870370,0,12183,12264,12280,12243,12090,12053,12063,12128,31768,475,88,28,9306,3705,-11770,0,0,0,1709870370,1,17601,17558,17558,17590,17663,17727,17815,17710,10150,471,110,59,10931,-3220,12315,0,0,0,1709870370,2,17672,17729,17794,17840,17773,17775,17772,17890,11173,108,256,137,14353,-4472,-6846,0,0,0,1709870370,,,,,,,,,,,,,,,,,,,,,,,,,,,,,,,,,,,,,,,,,,,,,,,,,,,,,,,,,,,,,,,,,,,,,,,,,,,,,,,,,,,,,,,,,,,,,,,,,,,,,,,,,,,,,,,,,,,,,,,,
1,31548,30616,30700,26024,30892,39,-198,16845,-149,0,216,1709870370,0,12045,12153,12239,12303,12188,12214,12192,12234,32032,240,260,65,8896,3416,-11622,0,0,0,1709870370,1,17608,17691,17705,17714,17744,17850,17861,17721,10822,366,238,48,10461,-3074,12978,0,0,0,1709870370,2,17646,17830,17854,17814,17719,17579,17582,17590,10542,610,71,112,14165,-4113,-6137,0,0,0,1709870370,,,,,,,,,,,,,,,,,,,,,,,,,,,,,,,,,,,,,,,,,,,,,,,,,,,,,,,,,,,,,,,,,,,,,,,,,,,,,,,,,,,,,,,,,,,,,,,,,,,,,,,,,,,,,,,,,,,,,,,,
1,31552,30572,30596,27912,28984,39,-198,16845,-149,0,216,1709870371,0,12289,12327,12303,12298,12173,12152,12171,12213,32390,363,34,73,9973,4276,-11253,0,0,0,1709870371,1,18384,18225,18097,17958,17940,18055,18206,18040,13833,623,282,316,10096,-2668,12681,0,0,0,1709870371,2,18007,18072,18109,18093,18122,17970,17994,18090,13385,194,143,189,14760,-4157,-6085,0,0,0,1709870371,,,,,,,,,,,,,,,,,,,,,,,,,,,,,,,,,,,,,,,,,,,,,,,,,,,,,,,,,,,,,,,,,,,,,,,,,,,,,,,,,,,,,,,,,,,,,,,,,,,,,,,,,,,,,,,,,,,,,,,,
1,31532,30532,30608,29160,30448,39,-198,16845,-149,0,216,1709870371,0,11936,11911,11942,11962,12064,12042,12070,12046,30436,323,56,97,9943,3847,-12340,0,0,0,1709870371,1,18158,18154,18014,18010,18043,18117,18205,18267,13896,473,18,99,10519,-2640,13164,0,0,0,1709870371,2,17923,18024,18121,18186,18187,18066,17983,17996,13414,492,92,105,14648,-4038,-5991,0,0,0,1709870371,,,,,,,,,,,,,,,,,,,,,,,,,,,,,,,,,,,,,,,,,,,,,,,,,,,,,,,,,,,,,,,,,,,,,,,,,,,,,,,,,,,,,,,,,,,,,,,,,,,,,,,,,,,,,,,,,,,,,,,,
1,31572,30556,30576,28520,30948,39,-198,16845,-149,0,216,1709870371,0,11908,11978,11996,12017,12015,11922,11961,12001,30262,116,122,136,9643,3761,-10776,0,0,0,1709870371,1,17943,18001,17917,17779,17660,17721,17763,17741,11453,591,216,132,10176,-2448,12750,0,0,0,1709870371,2,17740,17724,17792,17930,18060,17978,18046,17999,12197,660,230,190,14765,-4217,-6594,0,0,0,1709870371,,,,,,,,,,,,,,,,,,,,,,,,,,,,,,,,,,,,,,,,,,,,,,,,,,,,,,,,,,,,,,,,,,,,,,,,,,,,,,,,,,,,,,,,,,,,,,,,,,,,,,,,,,,,,,,,,,,,,,,,
1,31524,30560,30720,26996,31004,39,-198,16845,-149,0,216,1709870371,0,12200,12249,12240,12170,12088,12183,12211,12244,32048,212,163,37,9011,3560,-12124,0,0,0,1709870371,1,17784,17835,17946,17933,17977,17915,17836,17852,12006,326,40,134,11297,-3267,12821,0,0,0,1709870371,2,18199,18260,18355,18387,18423,18343,18176,18185,15256,500,96,97,14943,-4375,-6541,0,0,0,1709870371,,,,,,,,,,,,,,,,,,,,,,,,,,,,,,,,,,,,,,,,,,,,,,,,,,,,,,,,,,,,,,,,,,,,,,,,,,,,,,,,,,,,,,,,,,,,,,,,,,,,,,,,,,,,,,,,,,,,,,,,
1,31476,30584,30540,27712,31008,39,-198,16845,-149,0,216,1709870371,0,12139,12053,12076,12137,12172,12175,12234,12178,31627,287,87,49,9086,3836,-13081,0,0,0,1709870371,1,18196,18072,18161,18267,18303,18137,18138,18123,14325,266,269,52,9992,-2577,13218,0,0,0,1709870371,2,17846,17703,17754,17793,17815,17850,17784,17797,11270,153,128,152,14543,-3715,-5761,0,0,0,1709870371,,,,,,,,,,,,,,,,,,,,,,,,,,,,,,,,,,,,,,,,,,,,,,,,,,,,,,,,,,,,,,,,,,,,,,,,,,,,,,,,,,,,,,,,,,,,,,,,,,,,,,,,,,,,,,,,,,,,,,,,
1,31552,30660,29840,28824,31064,39,-198,16845,-149,0,216,1709870371,0,11988,12007,12014,12148,12249,12261,12180,12023,31333,588,106,75,10613,4119,-11454,0,0,0,1709870371,1,17919,18007,18020,18019,18095,17868,17828,17730,12414,569,208,130,11006,-3246,12819,0,0,0,1709870371,2,17409,17412,17372,17412,17546,17442,17389,17270,8180,265,259,97,14930,-5060,-6227,0,0,0,1709870371,,,,,,,,,,,,,,,,,,,,,,,,,,,,,,,,,,,,,,,,,,,,,,,,,,,,,,,,,,,,,,,,,,,,,,,,,,,,,,,,,,,,,,,,,,,,,,,,,,,,,,,,,,,,,,,,,,,,,,,,
1,31540,30756,29736,29032,31044,39,-198,16845,-149,0,216,1709870371,0,12222,12182,12078,12078,12198,12279,12299,12171,31970,355,216,90,10536,4023,-10568,0,0,0,1709870371,1,17613,17751,17790,17723,17622,17556,17569,17571,10123,466,124,46,10484,-3141,12751,0,0,0,1709870371,2,17698,17773,17820,17884,17913,17954,18007,17883,11860,465,219,104,13933,-4578,-6912,0,0,0,1709870371,,,,,,,,,,,,,,,,,,,,,,,,,,,,,,,,,,,,,,,,,,,,,,,,,,,,,,,,,,,,,,,,,,,,,,,,,,,,,,,,,,,,,,,,,,,,,,,,,,,,,,,,,,,,,,,,,,,,,,,,
1,31548,30424,30472,29708,30980,39,-198,16845,-149,0,216,1709870371,0,12269,12117,11813,11507,11306,11409,11751,12116,28752,1898,97,32,10696,4620,-11440,0,0,0,1709870371,1,18076,17987,17920,17872,17891,17930,18091,18114,12809,498,81,48,9701,-2541,12877,0,0,0,1709870371,2,18437,18337,18287,18197,18269,18362,18385,18415,15617,406,93,80,13800,-4091,-6163,0,0,0,1709870371,,,,,,,,,,,,,,,,,,,,,,,,,,,,,,,,,,,,,,,,,,,,,,,,,,,,,,,,,,,,,,,,,,,,,,,,,,,,,,,,,,,,,,,,,,,,,,,,,,,,,,,,,,,,,,,,,,,,,,,,
1,31624,29216,30336,30020,31056,39,-198,16845,-149,0,216,1709870372,0,13106,13247,13749,13606,13088,12564,12229,12051,38104,3159,265,637,10162,4613,-9817,0,0,0,1709870372,1,18750,19033,19093,18933,18649,18333,18270,18268,18257,1792,168,161,13167,-4398,11702,0,0,0,1709870372,2,18427,18441,18571,18759,18870,18910,18863,18426,18195,1082,215,231,13660,-4869,-7552,0,0,0,1709870372,,,,,,,,,,,,,,,,,,,,,,,,,,,,,,,,,,,,,,,,,,,,,,,,,,,,,,,,,,,,,,,,,,,,,,,,,,,,,,,,,,,,,,,,,,,,,,,,,,,,,,,,,,,,,,,,,,,,,,,,
1,31644,26420,30292,30000,30988,39,-198,16845,-149,0,216,1709870372,0,12045,11948,12065,12151,12177,12061,11933,11959,30803,395,245,113,9988,4392,-12118,0,0,0,1709870372,1,17750,17872,17854,17855,17766,17659,17684,17759,11127,394,85,109,10834,-3846,13166,0,0,0,1709870372,2,17486,17480,17537,17570,17584,17463,17460,17500,9008,193,146,62,14968,-5404,-7570,0,0,0,1709870372,,,,,,,,,,,,,,,,,,,,,,,,,,,,,,,,,,,,,,,,,,,,,,,,,,,,,,,,,,,,,,,,,,,,,,,,,,,,,,,,,,,,,,,,,,,,,,,,,,,,,,,,,,,,,,,,,,,,,,,,
1,31428,30248,30536,30100,30976,39,-198,16845,-149,0,216,1709870372,0,12152,12046,11826,11578,11577,11767,12008,12205,29623,1288,109,91,11693,4778,-8656,0,0,0,1709870372,1,17606,17444,17224,17195,17232,17301,17405,17508,7843,758,213,79,9444,-3507,11131,0,0,0,1709870372,2,17588,17607,17758,17753,17603,17258,17114,17217,8826,1278,335,118,11774,-4849,-8341,0,0,0,1709870372,,,,,,,,,,,,,,,,,,,,,,,,,,,,,,,,,,,,,,,,,,,,,,,,,,,,,,,,,,,,,,,,,,,,,,,,,,,,,,,,,,,,,,,,,,,,,,,,,,,,,,,,,,,,,,,,,,,,,,,,
1,30524,28444,30656,30120,31040,39,-198,16845,-149,0,216,1709870372,0,12254,12334,12290,12281,12239,12205,12222,12194,32482,225,66,86,13275,4610,-8368,0,0,0,1709870372,1,18569,18488,18472,18521,18575,18705,18818,18865,17941,747,242,108,10590,-5114,8931,0,0,0,1709870372,2,18424,18225,18021,17887,18150,18447,18587,18571,15240,1347,216,91,10153,-5197,-10510,0,0,0,1709870372,,,,,,,,,,,,,,,,,,,,,,,,,,,,,,,,,,,,,,,,,,,,,,,,,,,,,,,,,,,,,,,,,,,,,,,,,,,,,,,,,,,,,,,,,,,,,,,,,,,,,,,,,,,,,,,,,,,,,,,,
1,29140,29460,30612,30048,31012,39,-198,16845,-149,0,216,1709870372,0,12147,12059,11855,11678,11614,11605,11741,11825,28988,1013,230,149,13374,4019,-6923,0,0,0,1709870372,1,17717,17746,17753,17691,17587,17679,17741,17621,10463,167,221,157,13203,-6233,7320,0,0,0,1709870372,2,18380,18441,18492,18370,18376,18378,18483,18569,16417,208,249,209,10815,-4311,-11489,0,0,0,1709870372,,,,,,,,,,,,,,,,,,,,,,,,,,,,,,,,,,,,,,,,,,,,,,,,,,,,,,,,,,,,,,,,,,,,,,,,,,,,,,,,,,,,,,,,,,,,,,,,,,,,,,,,,,,,,,,,,,,,,,,,
1,31444,29476,30556,30056,30956,39,-198,16845,-149,0,216,1709870372,0,11599,12113,12659,13222,13341,12869,12500,12360,35126,2895,638,603,13790,5351,-8159,0,0,0,1709870372,1,18284,18283,18511,18907,19090,18879,18535,18378,17795,1603,350,25,13877,-6271,9006,0,0,0,1709870372,2,18041,18053,18268,18638,18854,18660,18369,18264,16075,1529,319,135,11511,-5757,-11635,0,0,0,1709870372,,,,,,,,,,,,,,,,,,,,,,,,,,,,,,,,,,,,,,,,,,,,,,,,,,,,,,,,,,,,,,,,,,,,,,,,,,,,,,,,,,,,,,,,,,,,,,,,,,,,,,,,,,,,,,,,,,,,,,,,
1,31820,26768,30524,30072,31036,39,-198,16845,-149,0,216,1709870372,0,11502,11471,11954,12412,12624,12757,12850,12887,32920,2731,1267,650,12631,5807,-8232,0,0,0,1709870372,1,18428,18339,18119,18043,18036,18029,18007,18006,13935,685,464,239,12738,-5699,10104,0,0,0,1709870372,2,18129,18198,18090,17978,17841,17760,17580,17422,11926,1229,633,418,12355,-5744,-10744,0,0,0,1709870372,,,,,,,,,,,,,,,,,,,,,,,,,,,,,,,,,,,,,,,,,,,,,,,,,,,,,,,,,,,,,,,,,,,,,,,,,,,,,,,,,,,,,,,,,,,,,,,,,,,,,,,,,,,,,,,,,,,,,,,,
1,31632,27708,28856,30188,31000,39,-198,16845,-149,0,216,1709870372,0,12363,12240,12081,11991,11787,11545,11446,11458,29375,1654,707,517,15176,4694,-8207,0,0,0,1709870372,1,17432,17071,17079,17141,17249,17395,17255,17345,6895,558,347,332,10772,-4381,9008,0,0,0,1709870372,2,17056,17161,17020,16900,16702,16702,16753,16809,4031,898,154,153,9487,-4499,-10300,0,0,0,1709870372,,,,,,,,,,,,,,,,,,,,,,,,,,,,,,,,,,,,,,,,,,,,,,,,,,,,,,,,,,,,,,,,,,,,,,,,,,,,,,,,,,,,,,,,,,,,,,,,,,,,,,,,,,,,,,,,,,,,,,,,
1,31520,30540,27332,30224,30992,39,-198,16845,-149,0,216,1709870373,0,12024,11964,11894,11875,11914,11866,11814,11913,29728,239,233,40,14664,4284,-5591,0,0,0,1709870373,1,17511,17564,17523,17478,17536,17528,17480,17202,8750,327,414,229,13016,-5967,6471,0,0,0,1709870373,2,17604,17522,17427,17473,17680,17805,17849,17696,9984,788,158,72,8328,-5284,-12291,0,0,0,1709870373,,,,,,,,,,,,,,,,,,,,,,,,,,,,,,,,,,,,,,,,,,,,,,,,,,,,,,,,,,,,,,,,,,,,,,,,,,,,,,,,,,,,,,,,,,,,,,,,,,,,,,,,,,,,,,,,,,,,,,,,
1,31512,30668,27064,28892,30900,39,-198,16845,-149,0,216,1709870373,0,12281,12322,12195,12209,12265,12450,12533,12539,33258,680,183,127,14553,4944,-4387,0,0,0,1709870373,1,18193,18244,18305,18379,18403,18530,18670,18605,16257,769,433,167,17113,-8248,6520,0,0,0,1709870373,2,18876,18874,18896,18951,18962,19020,19087,19087,20681,401,204,79,10936,-6575,-13486,0,0,0,1709870373,,,,,,,,,,,,,,,,,,,,,,,,,,,,,,,,,,,,,,,,,,,,,,,,,,,,,,,,,,,,,,,,,,,,,,,,,,,,,,,,,,,,,,,,,,,,,,,,,,,,,,,,,,,,,,,,,,,,,,,,
1,31564,30580,30600,28004,30972,39,-198,16845,-149,0,216,1709870373,0,12193,12185,12207,12110,11986,12018,12094,12129,31386,402,127,75,14188,4309,-4861,0,0,0,1709870373,1,18631,18530,18450,18347,18335,18377,18405,18286,16289,410,295,254,13751,-6161,6576,0,0,0,1709870373,2,18851,18711,18667,18665,18622,18628,18616,18714,18402,330,194,138,8638,-4879,-12338,0,0,0,1709870373,,,,,,,,,,,,,,,,,,,,,,,,,,,,,,,,,,,,,,,,,,,,,,,,,,,,,,,,,,,,,,,,,,,,,,,,,,,,,,,,,,,,,,,,,,,,,,,,,,,,,,,,,,,,,,,,,,,,,,,,
1,31508,30528,30684,25688,31080,39,-198,16845,-149,0,216,1709870373,0,12180,12013,11974,12039,12034,12015,12032,12139,30890,251,256,77,14303,5039,-3899,0,0,0,1709870373,1,17555,17465,17462,17472,17408,17377,17581,17780,9028,507,417,137,13788,-7378,5618,0,0,0,1709870373,2,17964,18076,18083,17814,17664,17559,17563,17595,11246,1159,226,89,7828,-5582,-12436,0,0,0,1709870373,,,,,,,,,,,,,,,,,,,,,,,,,,,,,,,,,,,,,,,,,,,,,,,,,,,,,,,,,,,,,,,,,,,,,,,,,,,,,,,,,,,,,,,,,,,,,,,,,,,,,,,,,,,,,,,,,,,,,,,,
1,31592,30556,30784,27268,30800,39,-198,16845,-149,0,216,1709870373,0,12210,12136,12129,12178,12265,12348,12339,12220,32289,427,86,71,16147,5804,-2578,0,0,0,1709870373,1,17171,17196,17228,17315,17408,17414,17293,17152,7105,516,154,41,14506,-7940,4621,0,0,0,1709870373,2,17710,17630,17459,17424,17457,17518,17521,17558,9205,433,250,91,6351,-5833,-14009,0,0,0,1709870373,,,,,,,,,,,,,,,,,,,,,,,,,,,,,,,,,,,,,,,,,,,,,,,,,,,,,,,,,,,,,,,,,,,,,,,,,,,,,,,,,,,,,,,,,,,,,,,,,,,,,,,,,,,,,,,,,,,,,,,,
1,31512,30532,30784,26300,30612,39,-198,16845,-149,0,216,1709870373,0,12435,12446,12192,12039,12141,12256,12338,12391,32702,725,275,94,15393,5346,-2867,0,0,0,1709870373,1,17757,17803,17732,17749,17825,17861,17898,17907,11460,318,48,139,15222,-7569,3684,0,0,0,1709870373,2,17528,17472,17537,17389,17448,17532,17593,17689,9116,398,170,217,7990,-5687,-13144,0,0,0,1709870373,,,,,,,,,,,,,,,,,,,,,,,,,,,,,,,,,,,,,,,,,,,,,,,,,,,,,,,,,,,,,,,,,,,,,,,,,,,,,,,,,,,,,,,,,,,,,,,,,,,,,,,,,,,,,,,,,,,,,,,,
1,31544,30520,30608,27136,29272,39,-198,16845,-149,0,216,1709870373,0,12365,12386,12307,12144,12076,12127,12168,12207,32244,586,165,61,15030,4835,-2680,0,0,0,1709870373,1,18673,18727,18753,18519,18419,18425,18450,18437,17331,705,225,103,14714,-7447,4767,0,0,0,1709870373,2,18698,18805,18786,18680,18536,18566,18527,18492,18018,594,214,133,7437,-5513,-13732,0,0,0,1709870373,,,,,,,,,,,,,,,,,,,,,,,,,,,,,,,,,,,,,,,,,,,,,,,,,,,,,,,,,,,,,,,,,,,,,,,,,,,,,,,,,,,,,,,,,,,,,,,,,,,,,,,,,,,,,,,,,,,,,,,,
1,31456,30572,30640,28200,30936,39,-198,16845,-149,0,216,1709870373,0,11721,11772,11788,11700,11749,11818,11953,12020,28985,455,300,240,15681,4575,-2451,0,0,0,1709870373,1,17746,17660,17660,17681,17720,17855,17952,17953,11155,627,188,47,15155,-7639,3978,0,0,0,1709870373,2,17943,17927,17848,17713,17547,17536,17546,17585,10573,886,190,219,6715,-5602,-14387,0,0,0,1709870373,,,,,,,,,,,,,,,,,,,,,,,,,,,,,,,,,,,,,,,,,,,,,,,,,,,,,,,,,,,,,,,,,,,,,,,,,,,,,,,,,,,,,,,,,,,,,,,,,,,,,,,,,,,,,,,,,,,,,,,,
1,31492,30512,29840,28328,30976,39,-198,16845,-149,0,216,1709870374,0,12304,12372,12395,12291,12201,12072,12092,12159,32350,647,18,15,14844,4650,-1946,0,0,0,1709870374,1,17942,17987,17900,17849,17755,17362,17407,17436,10566,1272,395,243,14733,-7908,3775,0,0,0,1709870374,2,17795,17859,17964,18005,18083,18039,17981,18039,12693,425,160,228,6978,-5637,-13631,0,0,0,1709870374,,,,,,,,,,,,,,,,,,,,,,,,,,,,,,,,,,,,,,,,,,,,,,,,,,,,,,,,,,,,,,,,,,,,,,,,,,,,,,,,,,,,,,,,,,,,,,,,,,,,,,,,,,,,,,,,,,,,,,,,
1,31540,30712,26812,27988,30984,39,-198,16845,-149,0,216,1709870374,0,12152,12193,12250,12160,12185,12230,12340,12456,32430,358,318,260,16041,4227,-1906,0,0,0,1709870374,1,18177,18036,17977,17987,18035,18068,18095,18197,13500,394,161,55,14380,-7485,3371,0,0,0,1709870374,2,17995,18059,18178,18267,18209,18112,17969,17983,13700,585,97,51,6555,-5477,-14105,0,0,0,1709870374,,,,,,,,,,,,,,,,,,,,,,,,,,,,,,,,,,,,,,,,,,,,,,,,,,,,,,,,,,,,,,,,,,,,,,,,,,,,,,,,,,,,,,,,,,,,,,,,,,,,,,,,,,,,,,,,,,,,,,,,
1,31508,30604,29452,29924,30968,39,-198,16845,-149,0,216,1709870374,0,12006,12059,12153,12161,12124,12003,11930,11954,30854,466,70,38,15479,5001,-1931,0,0,0,1709870374,1,18237,18262,18292,18350,18437,18484,18442,18266,15698,484,143,54,13336,-7157,4110,0,0,0,1709870374,2,17723,17719,17568,17459,17482,17522,17561,17591,9553,476,205,39,5870,-5549,-13510,0,0,0,1709870374,,,,,,,,,,,,,,,,,,,,,,,,,,,,,,,,,,,,,,,,,,,,,,,,,,,,,,,,,,,,,,,,,,,,,,,,,,,,,,,,,,,,,,,,,,,,,,,,,,,,,,,,,,,,,,,,,,,,,,,,
1,31496,30772,29520,30112,30996,39,-198,16845,-149,0,216,1709870374,0,12446,12415,12268,12179,12201,12267,12284,12308,32832,440,216,57,15774,5470,-2250,0,0,0,1709870374,1,18392,18487,18376,17965,17911,17932,17893,17922,13806,1237,533,133,15472,-8158,3613,0,0,0,1709870374,2,17833,17921,18020,17970,18059,18195,18283,18247,13456,689,423,260,6339,-5487,-14192,0,0,0,1709870374,,,,,,,,,,,,,,,,,,,,,,,,,,,,,,,,,,,,,,,,,,,,,,,,,,,,,,,,,,,,,,,,,,,,,,,,,,,,,,,,,,,,,,,,,,,,,,,,,,,,,,,,,,,,,,,,,,,,,,,,
1,31500,30688,27424,30024,30996,39,-198,16845,-149,0,216,1709870374,0,12139,12222,12190,12117,11949,11929,12012,12133,31155,553,150,33,15762,4281,-2497,0,0,0,1709870374,1,17652,17606,17520,17376,17384,17457,17528,17590,9041,527,97,39,14870,-7038,3842,0,0,0,1709870374,2,18293,18331,18395,18445,18163,18049,18153,18237,14994,616,315,130,6709,-5362,-13607,0,0,0,1709870374,,,,,,,,,,,,,,,,,,,,,,,,,,,,,,,,,,,,,,,,,,,,,,,,,,,,,,,,,,,,,,,,,,,,,,,,,,,,,,,,,,,,,,,,,,,,,,,,,,,,,,,,,,,,,,,,,,,,,,,,
1,31500,30296,30492,30032,31044,39,-198,16845,-149,0,216,1709870374,0,11726,12272,12784,13043,12810,12715,12680,12377,34871,1886,1024,304,16827,5810,-2261,0,0,0,1709870374,1,17421,17727,17839,17663,17632,17623,17602,17493,9928,501,433,169,14638,-6697,4570,0,0,0,1709870374,2,17903,18203,18485,18664,18614,18301,18041,17973,15112,1534,133,155,7662,-5680,-13667,0,0,0,1709870374,,,,,,,,,,,,,,,,,,,,,,,,,,,,,,,,,,,,,,,,,,,,,,,,,,,,,,,,,,,,,,,,,,,,,,,,,,,,,,,,,,,,,,,,,,,,,,,,,,,,,,,,,,,,,,,,,,,,,,,,
1,31696,28200,30208,30068,31092,39,-198,16845,-149,0,216,1709870374,0,12306,12409,12447,12439,12316,12205,12186,12210,32982,567,36,45,15622,4452,-2027,0,0,0,1709870374,1,18333,18446,18570,18507,18464,18332,18308,18359,16247,473,119,131,15035,-8094,4113,0,0,0,1709870374,2,17741,17755,17804,17795,17833,17721,17747,17860,11184,41,180,180,7326,-5756,-14257,0,0,0,1709870374,,,,,,,,,,,,,,,,,,,,,,,,,,,,,,,,,,,,,,,,,,,,,,,,,,,,,,,,,,,,,,,,,,,,,,,,,,,,,,,,,,,,,,,,,,,,,,,,,,,,,,,,,,,,,,,,,,,,,,,,
1,31484,30132,30452,30080,31000,39,-198,16845,-149,0,216,1709870374,0,12001,12047,12135,12237,12265,12243,12073,11984,31449,590,90,57,16438,3892,-3206,0,0,0,1709870374,1,18527,18626,18668,18677,18657,18481,18377,18391,17332,638,144,33,14072,-6592,4765,0,0,0,1709870374,2,17210,17198,17185,17140,17141,17164,17251,17352,6569,309,155,120,8197,-5489,-13195,0,0,0,1709870374,,,,,,,,,,,,,,,,,,,,,,,,,,,,,,,,,,,,,,,,,,,,,,,,,,,,,,,,,,,,,,,,,,,,,,,,,,,,,,,,,,,,,,,,,,,,,,,,,,,,,,,,,,,,,,,,,,,,,,,,
1,29912,30388,30684,30040,31108,39,-198,16845,-149,0,216,1709870375,0,11955,12127,12283,12356,12381,12397,12120,11934,32017,954,243,84,14340,4669,-1930,0,0,0,1709870375,1,18022,18020,18075,18085,18181,18329,18561,18388,14589,933,450,163,16046,-8261,3081,0,0,0,1709870375,2,18311,18075,18077,17898,17544,17578,17840,18115,12366,1344,365,265,7344,-6227,-15851,0,0,0,1709870375,,,,,,,,,,,,,,,,,,,,,,,,,,,,,,,,,,,,,,,,,,,,,,,,,,,,,,,,,,,,,,,,,,,,,,,,,,,,,,,,,,,,,,,,,,,,,,,,,,,,,,,,,,,,,,,,,,,,,,,,
1,29384,29532,30668,30076,31048,39,-198,16845,-149,0,216,1709870375,0,12049,12070,12112,12207,12272,12129,12002,11926,31231,534,217,50,15919,4802,-1976,0,0,0,1709870375,1,17238,17336,17422,17146,17033,17039,17108,17133,6383,670,276,94,13390,-7620,3303,0,0,0,1709870375,2,18413,18468,18500,18424,18443,18457,18547,18638,16818,230,235,212,6058,-5694,-14905,0,0,0,1709870375,,,,,,,,,,,,,,,,,,,,,,,,,,,,,,,,,,,,,,,,,,,,,,,,,,,,,,,,,,,,,,,,,,,,,,,,,,,,,,,,,,,,,,,,,,,,,,,,,,,,,,,,,,,,,,,,,,,,,,,,
1,31496,30252,30552,30072,30940,39,-198,16845,-149,0,216,1709870375,0,12242,11955,11592,11132,10568,10635,11279,12159,26025,3373,703,106,14357,3736,-846,0,0,0,1709870375,1,18186,18359,18437,18215,17842,17711,17688,17719,13085,1622,167,243,14348,-6433,3851,0,0,0,1709870375,2,18653,18782,18836,18906,18949,18718,18052,18112,17936,1610,861,282,6900,-4626,-13363,0,0,0,1709870375,,,,,,,,,,,,,,,,,,,,,,,,,,,,,,,,,,,,,,,,,,,,,,,,,,,,,,,,,,,,,,,,,,,,,,,,,,,,,,,,,,,,,,,,,,,,,,,,,,,,,,,,,,,,,,,,,,,,,,,,
1,31692,28088,30680,30040,31132,39,-198,16845,-149,0,216,1709870375,0,12128,12130,12159,12167,12185,12272,12344,12227,32076,347,190,42,15787,4537,-2356,0,0,0,1709870375,1,18357,18385,18570,18678,18685,18574,18499,18485,17161,602,205,89,15339,-7763,4690,0,0,0,1709870375,2,17711,17787,17785,17769,17755,17725,17759,17799,11018,52,96,109,6678,-5556,-14426,0,0,0,1709870375,,,,,,,,,,,,,,,,,,,,,,,,,,,,,,,,,,,,,,,,,,,,,,,,,,,,,,,,,,,,,,,,,,,,,,,,,,,,,,,,,,,,,,,,,,,,,,,,,,,,,,,,,,,,,,,,,,,,,,,,
1,31480,30612,30416,30028,31024,39,-198,16845,-149,0,216,1709870375,0,11894,11943,11907,11938,11952,12023,12104,12160,30384,412,211,159,16784,3720,-2738,0,0,0,1709870375,1,18123,18222,18265,18184,18053,17960,17951,17966,13652,661,51,46,14822,-6617,3850,0,0,0,1709870375,2,17021,17083,17098,17134,17212,17016,16889,16855,5236,567,269,54,7370,-4923,-13624,0,0,0,1709870375,,,,,,,,,,,,,,,,,,,,,,,,,,,,,,,,,,,,,,,,,,,,,,,,,,,,,,,,,,,,,,,,,,,,,,,,,,,,,,,,,,,,,,,,,,,,,,,,,,,,,,,,,,,,,,,,,,,,,,,,
1,31452,30708,26988,30144,30980,39,-198,16845,-149,0,216,1709870375,0,12306,12397,12514,12517,12406,12283,12238,12234,33359,598,81,20,15915,4316,-3083,0,0,0,1709870375,1,17887,17893,18020,18110,18134,18070,17958,17869,12869,553,45,51,14102,-6719,4303,0,0,0,1709870375,2,18055,18077,18192,18358,18399,18328,18124,18034,14495,760,138,64,6205,-4916,-14482,0,0,0,1709870375,,,,,,,,,,,,,,,,,,,,,,,,,,,,,,,,,,,,,,,,,,,,,,,,,,,,,,,,,,,,,,,,,,,,,,,,,,,,,,,,,,,,,,,,,,,,,,,,,,,,,,,,,,,,,,,,,,,,,,,,
1,31432,30636,27536,30200,30948,39,-198,16845,-149,0,216,1709870375,0,12076,12151,12170,12222,12264,12158,12050,11960,31515,482,174,60,14917,4435,-3708,0,0,0,1709870375,1,17542,17428,17353,17380,17446,17502,17443,17459,8481,221,212,94,14892,-6992,4738,0,0,0,1709870375,2,18410,18393,18377,18362,18438,18529,18608,18583,16628,484,138,90,7253,-4884,-13160,0,0,0,1709870375,,,,,,,,,,,,,,,,,,,,,,,,,,,,,,,,,,,,,,,,,,,,,,,,,,,,,,,,,,,,,,,,,,,,,,,,,,,,,,,,,,,,,,,,,,,,,,,,,,,,,,,,,,,,,,,,,,,,,,,,
1,31516,30616,30240,30024,31084,39,-198,16845,-149,0,216,1709870375,0,12093,12086,12109,12229,12311,12318,12212,12093,31914,507,116,54,15561,3721,-2872,0,0,0,1709870375,1,18401,18317,18107,17954,17897,17880,17941,18029,13454,963,329,168,14514,-6612,4213,0,0,0,1709870375,2,18320,18374,18495,18312,18300,18287,18257,18229,15502,358,178,119,6406,-4479,-13655,0,0,0,1709870375,,,,,,,,,,,,,,,,,,,,,,,,,,,,,,,,,,,,,,,,,,,,,,,,,,,,,,,,,,,,,,,,,,,,,,,,,,,,,,,,,,,,,,,,,,,,,,,,,,,,,,,,,,,,,,,,,,,,,,,,
1,31516,30544,30752,25724,30940,39,-198,16845,-149,0,216,1709870375,0,12234,12185,12067,12074,12121,12179,12181,12133,31638,219,189,101,14756,4733,-2265,0,0,0,1709870376,1,18740,18780,18727,18564,18495,18437,18391,18404,17466,786,275,117,15141,-7658,4211,0,0,0,1709870376,2,17932,17975,17944,17829,17759,17710,17655,17663,11395,641,213,104,6854,-5168,-13957,0,0,0,1709870376,,,,,,,,,,,,,,,,,,,,,,,,,,,,,,,,,,,,,,,,,,,,,,,,,,,,,,,,,,,,,,,,,,,,,,,,,,,,,,,,,,,,,,,,,,,,,,,,,,,,,,,,,,,,,,,,,,,,,,,,
1,31536,30552,30648,25440,30964,39,-198,16845,-149,0,216,1709870376,0,12211,12295,12242,12123,12012,12044,12089,12122,31601,500,143,33,15828,4620,-2475,0,0,0,1709870376,1,18068,18091,18053,18044,18092,18127,18265,18332,14000,467,223,202,14954,-6994,4495,0,0,0,1709870376,2,17165,17235,17366,17444,17400,17207,17140,17166,7051,604,178,59,6948,-5140,-14384,0,0,0,1709870376,,,,,,,,,,,,,,,,,,,,,,,,,,,,,,,,,,,,,,,,,,,,,,,,,,,,,,,,,,,,,,,,,,,,,,,,,,,,,,,,,,,,,,,,,,,,,,,,,,,,,,,,,,,,,,,,,,,,,,,,
1,31484,30532,30592,29332,30876,39,-198,16845,-149,0,216,1709870376,0,12202,12261,12219,12258,12276,12372,12492,12527,33071,543,278,185,15696,3590,-2428,0,0,0,1709870376,1,17952,18076,18092,17896,17704,17668,17718,17734,11768,884,191,79,14398,-6692,4068,0,0,0,1709870376,2,17775,17841,17860,17830,17760,17801,17920,18019,11734,242,320,153,7015,-4732,-13747,0,0,0,1709870376,,,,,,,,,,,,,,,,,,,,,,,,,,,,,,,,,,,,,,,,,,,,,,,,,,,,,,,,,,,,,,,,,,,,,,,,,,,,,,,,,,,,,,,,,,,,,,,,,,,,,,,,,,,,,,,,,,,,,,,,
1,31480,30476,30596,28920,28824,39,-198,16845,-149,0,216,1709870376,0,12189,12201,12239,12289,12432,12544,12411,12331,33100,636,128,104,14256,4771,-2336,0,0,0,1709870376,1,17721,17761,17686,17601,17524,17492,17528,17512,9753,523,143,117,13806,-5772,5488,0,0,0,1709870376,2,18612,18560,18485,18419,18437,18524,18608,18691,17264,488,51,61,4982,-5384,-15056,0,0,0,1709870376,,,,,,,,,,,,,,,,,,,,,,,,,,,,,,,,,,,,,,,,,,,,,,,,,,,,,,,,,,,,,,,,,,,,,,,,,,,,,,,,,,,,,,,,,,,,,,,,,,,,,,,,,,,,,,,,,,,,,,,,
1,31488,30540,30576,28788,30024,39,-198,16845,-149,0,216,1709870376,0,11925,11838,11841,11871,11967,12020,12033,11979,29937,408,19,16,16478,4495,-2257,0,0,0,1709870376,1,17743,17813,17779,17641,17584,17644,17721,17718,10571,354,198,16,14658,-6944,4248,0,0,0,1709870376,2,18122,18157,18176,18136,18187,18304,18399,18153,14562,373,316,110,6551,-5074,-14033,0,0,0,1709870376,,,,,,,,,,,,,,,,,,,,,,,,,,,,,,,,,,,,,,,,,,,,,,,,,,,,,,,,,,,,,,,,,,,,,,,,,,,,,,,,,,,,,,,,,,,,,,,,,,,,,,,,,,,,,,,,,,,,,,,,
1,31504,30560,30560,29516,30912,39,-198,16845,-149,0,216,1709870376,0,12667,12456,12155,11682,11457,11467,11528,11697,29573,2327,700,503,14999,4257,-2322,0,0,0,1709870376,1,18823,18901,18929,18780,18514,18547,18682,18756,18860,747,287,78,15094,-7279,4381,0,0,0,1709870376,2,18411,18413,18428,18460,18413,18235,18067,18087,15442,763,344,138,6110,-5021,-14230,0,0,0,1709870376,,,,,,,,,,,,,,,,,,,,,,,,,,,,,,,,,,,,,,,,,,,,,,,,,,,,,,,,,,,,,,,,,,,,,,,,,,,,,,,,,,,,,,,,,,,,,,,,,,,,,,,,,,,,,,,,,,,,,,,,
1,30348,27732,27776,26868,29088,39,-198,16845,-149,0,216,1709870376,0,12582,12586,12496,12276,11620,11626,11745,11841,31236,2190,102,635,14172,3802,-3069,0,0,0,1709870376,1,17835,17886,18276,18314,18301,18193,18018,17751,13502,1166,158,167,14800,-7064,4483,0,0,0,1709870376,2,17698,17262,17332,17441,17224,17234,17427,17486,8032,536,460,430,7108,-5553,-13814,0,0,0,1709870376,,,,,,,,,,,,,,,,,,,,,,,,,,,,,,,,,,,,,,,,,,,,,,,,,,,,,,,,,,,,,,,,,,,,,,,,,,,,,,,,,,,,,,,,,,,,,,,,,,,,,,,,,,,,,,,,,,,,,,,,
1,31316,29936,29424,27508,30496,39,-198,16845,-149,0,216,1709870376,0,11902,11998,11869,12008,12062,12017,11928,11865,30112,276,219,153,14748,4533,-4012,0,0,0,1709870376,1,17256,17267,17277,17349,17398,17443,17380,17237,7535,376,124,84,14384,-6961,4846,0,0,0,1709870376,2,16949,16986,16934,16954,17056,17104,17132,16911,4954,334,233,145,6816,-4879,-13073,0,0,0,1709870376,,,,,,,,,,,,,,,,,,,,,,,,,,,,,,,,,,,,,,,,,,,,,,,,,,,,,,,,,,,,,,,,,,,,,,,,,,,,,,,,,,,,,,,,,,,,,,,,,,,,,,,,,,,,,,,,,,,,,,,,
1,31452,30644,30556,29772,30960,39,-198,16845,-149,0,216,1709870376,0,11882,11920,12011,12017,11984,11938,11904,11848,29968,317,49,30,16070,4067,-2817,0,0,0,1709870376,1,17514,17641,17674,17525,17428,17373,17337,17385,8805,649,124,48,13564,-7271,4340,0,0,0,1709870376,2,17654,17755,17803,17790,17660,17612,17665,17676,10543,320,183,51,6457,-4827,-13674,0,0,0,1709870376,,,,,,,,,,,,,,,,,,,,,,,,,,,,,,,,,,,,,,,,,,,,,,,,,,,,,,,,,,,,,,,,,,,,,,,,,,,,,,,,,,,,,,,,,,,,,,,,,,,,,,,,,,,,,,,,,,,,,,,,
1,31404,29380,29164,28176,30496,39,-198,16845,-149,0,216,1709870377,0,11591,11480,11565,11666,11769,12095,12388,12621,29639,1934,926,507,13148,4867,-4096,0,0,0,1709870377,1,19089,19361,19588,19793,19541,19229,19235,18711,23475,1652,211,551,16339,-9452,2317,0,0,0,1709870377,2,18960,18965,18964,19119,19354,19377,19262,19287,22216,906,108,248,5332,-6622,-14634,0,0,0,1709870377,,,,,,,,,,,,,,,,,,,,,,,,,,,,,,,,,,,,,,,,,,,,,,,,,,,,,,,,,,,,,,,,,,,,,,,,,,,,,,,,,,,,,,,,,,,,,,,,,,,,,,,,,,,,,,,,,,,,,,,,
1,31060,27172,30392,26936,29012,39,-198,16845,-149,0,216,1709870377,0,12329,12360,12340,12332,12341,12433,12519,12558,33676,402,212,124,15918,3899,-3070,0,0,0,1709870377,1,18121,18186,18207,18235,18322,18427,18438,18457,15321,598,216,210,14131,-6996,4590,0,0,0,1709870377,2,18440,18427,18435,18466,18465,18447,18510,18573,16691,168,169,87,6574,-5147,-13716,0,0,0,1709870377,,,,,,,,,,,,,,,,,,,,,,,,,,,,,,,,,,,,,,,,,,,,,,,,,,,,,,,,,,,,,,,,,,,,,,,,,,,,,,,,,,,,,,,,,,,,,,,,,,,,,,,,,,,,,,,,,,,,,,,,
1,31460,30584,30456,29332,30744,39,-198,16845,-149,0,216,1709870377,0,11621,11761,11824,11904,11846,11887,11972,12104,29383,416,487,289,16347,3401,-3533,0,0,0,1709870377,1,17386,17515,17636,17647,17565,17383,17275,17239,8574,831,41,26,13196,-6994,4282,0,0,0,1709870377,2,16958,16853,16756,16822,16878,16898,16857,16899,3849,213,225,59,7884,-5281,-12828,0,0,0,1709870377,,,,,,,,,,,,,,,,,,,,,,,,,,,,,,,,,,,,,,,,,,,,,,,,,,,,,,,,,,,,,,,,,,,,,,,,,,,,,,,,,,,,,,,,,,,,,,,,,,,,,,,,,,,,,,,,,,,,,,,,
1,31512,30384,30360,29020,30776,39,-198,16845,-149,0,216,1709870377,0,13182,13363,13151,12709,12050,11136,11223,11530,32808,4723,896,619,14721,5697,-3186,0,0,0,1709870377,1,18260,18357,18258,17870,17928,18018,18006,17914,13539,758,595,75,17310,-7844,4351,0,0,0,1709870377,2,19078,18314,18108,17752,17417,17411,17738,17468,12214,2422,822,1310,6491,-5560,-13709,0,0,0,1709870377,,,,,,,,,,,,,,,,,,,,,,,,,,,,,,,,,,,,,,,,,,,,,,,,,,,,,,,,,,,,,,,,,,,,,,,,,,,,,,,,,,,,,,,,,,,,,,,,,,,,,,,,,,,,,,,,,,,,,,,,
1,30788,28888,27800,26896,29028,39,-198,16845,-149,0,216,1709870377,0,12138,12026,11977,12049,12066,12050,12071,12180,31021,251,218,16,15589,2923,-2175,0,0,0,1709870377,1,18115,18084,18118,18158,18175,18088,18028,17997,13691,267,145,60,13966,-6335,4453,0,0,0,1709870377,2,18159,18152,17989,17808,17784,17769,17773,17813,12175,809,350,112,5220,-5570,-14417,0,0,0,1709870377,,,,,,,,,,,,,,,,,,,,,,,,,,,,,,,,,,,,,,,,,,,,,,,,,,,,,,,,,,,,,,,,,,,,,,,,,,,,,,,,,,,,,,,,,,,,,,,,,,,,,,,,,,,,,,,,,,,,,,,,
1,31444,30548,30444,29840,30872,39,-198,16845,-149,0,216,1709870377,0,11726,11769,11854,11811,11838,11867,11936,12108,29373,362,362,320,15574,3576,-3216,0,0,0,1709870377,1,17673,17752,17839,17797,17775,17688,17534,17496,10482,624,165,80,14416,-6647,4512,0,0,0,1709870377,2,18201,18239,18275,18244,18245,18357,18440,18388,15317,351,271,65,7320,-4827,-13777,0,0,0,1709870377,,,,,,,,,,,,,,,,,,,,,,,,,,,,,,,,,,,,,,,,,,,,,,,,,,,,,,,,,,,,,,,,,,,,,,,,,,,,,,,,,,,,,,,,,,,,,,,,,,,,,,,,,,,,,,,,,,,,,,,,
1,31508,30576,30656,28400,30928,39,-198,16845,-149,0,216,1709870377,0,12237,12248,12306,12440,12222,12134,12041,12139,32231,570,226,149,15774,4714,-3781,0,0,0,1709870377,1,17790,17857,17940,18056,18109,18088,17987,17797,12552,666,96,72,14868,-6935,4645,0,0,0,1709870377,2,18577,18633,18625,18607,18698,18756,18799,18759,18382,381,150,142,7609,-4994,-13483,0,0,0,1709870377,,,,,,,,,,,,,,,,,,,,,,,,,,,,,,,,,,,,,,,,,,,,,,,,,,,,,,,,,,,,,,,,,,,,,,,,,,,,,,,,,,,,,,,,,,,,,,,,,,,,,,,,,,,,,,,,,,,,,,,,
1,31444,30548,30700,26996,30956,39,-198,16845,-149,0,216,1709870377,0,12264,12314,12254,12095,12027,12055,12071,12094,31638,557,183,54,14794,3827,-2563,0,0,0,1709870377,1,18260,18143,18051,18060,18086,18143,18152,18194,14017,332,146,79,14079,-7011,4144,0,0,0,1709870377,2,17984,18088,18153,17890,17766,17749,17803,17857,12218,751,224,86,6768,-4998,-13645,0,0,0,1709870377,,,,,,,,,,,,,,,,,,,,,,,,,,,,,,,,,,,,,,,,,,,,,,,,,,,,,,,,,,,,,,,,,,,,,,,,,,,,,,,,,,,,,,,,,,,,,,,,,,,,,,,,,,,,,,,,,,,,,,,,
1,31436,30576,30512,29752,31020,39,-198,16845,-149,0,216,1709870378,0,12150,12189,12216,12295,12312,12228,12121,12057,32032,428,140,56,15332,4286,-2326,0,0,0,1709870378,1,17894,17892,17929,17965,18003,17997,17992,17924,12524,238,24,18,14271,-6962,4135,0,0,0,1709870378,2,17312,17320,17273,17312,17368,17424,17470,17557,7964,445,139,163,6760,-4714,-13529,0,0,0,1709870378,,,,,,,,,,,,,,,,,,,,,,,,,,,,,,,,,,,,,,,,,,,,,,,,,,,,,,,,,,,,,,,,,,,,,,,,,,,,,,,,,,,,,,,,,,,,,,,,,,,,,,,,,,,,,,,,,,,,,,,,
1,31480,30576,30692,25720,31004,39,-198,16845,-149,0,216,1709870378,0,12336,12396,12348,12220,12142,12158,12159,12177,32400,510,159,56,15616,3974,-2001,0,0,0,1709870378,1,17759,17834,17834,17731,17484,17526,17489,17500,10085,797,151,223,15040,-7393,3795,0,0,0,1709870378,2,17952,18093,18155,18154,17825,17767,17830,17857,12561,779,257,157,6258,-5096,-14478,0,0,0,1709870378,,,,,,,,,,,,,,,,,,,,,,,,,,,,,,,,,,,,,,,,,,,,,,,,,,,,,,,,,,,,,,,,,,,,,,,,,,,,,,,,,,,,,,,,,,,,,,,,,,,,,,,,,,,,,,,,,,,,,,,,
1,31504,30528,30552,29900,30984,39,-198,16845,-149,0,216,1709870378,0,12134,12216,12291,12348,12279,12109,12063,12080,31984,556,118,48,15410,4286,-3167,0,0,0,1709870378,1,17678,17637,17627,17622,17606,17673,17843,18001,10615,598,364,187,13902,-6379,4606,0,0,0,1709870378,2,18447,18409,18391,18442,18503,18397,18287,18330,16134,229,274,21,7481,-4823,-13321,0,0,0,1709870378,,,,,,,,,,,,,,,,,,,,,,,,,,,,,,,,,,,,,,,,,,,,,,,,,,,,,,,,,,,,,,,,,,,,,,,,,,,,,,,,,,,,,,,,,,,,,,,,,,,,,,,,,,,,,,,,,,,,,,,,
1,31460,30552,30600,27304,30936,39,-198,16845,-149,0,216,1709870378,0,12310,12391,12452,12243,12095,12137,12178,12228,32498,602,232,95,15942,4297,-2891,0,0,0,1709870378,1,18090,18104,18144,18082,18112,18162,18281,18360,14263,397,284,204,14589,-7207,4465,0,0,0,1709870378,2,18742,18734,18640,18441,18417,18457,18464,18480,17303,647,275,101,6732,-4695,-13695,0,0,0,1709870378,,,,,,,,,,,,,,,,,,,,,,,,,,,,,,,,,,,,,,,,,,,,,,,,,,,,,,,,,,,,,,,,,,,,,,,,,,,,,,,,,,,,,,,,,,,,,,,,,,,,,,,,,,,,,,,,,,,,,,,,
1,31452,30528,30584,29452,31008,39,-198,16845,-149,0,216,1709870378,0,12144,12012,11976,12038,12072,12047,12062,12149,30964,227,219,25,15350,4492,-2245,0,0,0,1709870378,1,18147,18237,18329,18343,18323,18097,18004,18043,14451,698,146,64,14619,-7090,4311,0,0,0,1709870378,2,18193,17871,17756,17804,17859,17860,17871,17879,12021,426,427,281,6922,-5035,-13991,0,0,0,1709870378,,,,,,,,,,,,,,,,,,,,,,,,,,,,,,,,,,,,,,,,,,,,,,,,,,,,,,,,,,,,,,,,,,,,,,,,,,,,,,,,,,,,,,,,,,,,,,,,,,,,,,,,,,,,,,,,,,,,,,,,
1,31480,30700,27584,30048,31052,39,-198,16845,-149,0,216,1709870378,0,11999,12040,12064,12033,12036,12113,12178,12253,31180,328,246,168,15578,4040,-1567,0,0,0,1709870378,1,17813,17829,17861,17872,17876,17738,17630,17593,11140,530,222,76,15419,-7137,3225,0,0,0,1709870378,2,17392,17438,17420,17396,17523,17674,17679,17650,9100,616,195,168,6744,-5036,-14321,0,0,0,1709870378,,,,,,,,,,,,,,,,,,,,,,,,,,,,,,,,,,,,,,,,,,,,,,,,,,,,,,,,,,,,,,,,,,,,,,,,,,,,,,,,,,,,,,,,,,,,,,,,,,,,,,,,,,,,,,,,,,,,,,,,
1,31496,30524,30380,29956,31004,39,-198,16845,-149,0,216,1709870378,0,12141,12143,12218,12317,12274,12186,12063,12074,31880,447,147,70,14489,4247,-3059,0,0,0,1709870378,1,17815,17528,17508,17530,17522,17548,17556,17583,9518,331,275,269,14168,-6656,4703,0,0,0,1709870378,2,17635,17591,17612,17649,17693,17756,17813,17821,10498,442,156,73,7256,-4643,-13299,0,0,0,1709870378,,,,,,,,,,,,,,,,,,,,,,,,,,,,,,,,,,,,,,,,,,,,,,,,,,,,,,,,,,,,,,,,,,,,,,,,,,,,,,,,,,,,,,,,,,,,,,,,,,,,,,,,,,,,,,,,,,,,,,,,
1,31424,30492,29384,29980,30944,39,-198,16845,-149,0,216,1709870378,0,12224,12211,12268,12388,12435,12403,12275,12170,32838,501,128,82,16681,3197,-1591,0,0,0,1709870378,1,18006,18166,18254,18224,18067,18020,17987,17932,13584,599,170,60,15738,-7010,3408,0,0,0,1709870378,2,18261,18229,18270,18335,18459,18562,18646,18590,16280,831,237,148,7679,-5182,-14140,0,0,0,1709870378,,,,,,,,,,,,,,,,,,,,,,,,,,,,,,,,,,,,,,,,,,,,,,,,,,,,,,,,,,,,,,,,,,,,,,,,,,,,,,,,,,,,,,,,,,,,,,,,,,,,,,,,,,,,,,,,,,,,,,,,
1,31424,30632,27244,30124,31004,39,-198,16845,-149,0,216,1709870378,0,12035,12045,12101,12128,12071,12095,12127,12182,31248,104,209,61,15185,4954,-2495,0,0,0,1709870378,1,18340,18407,18471,18524,18544,18503,18342,18306,16365,477,106,46,14442,-7003,4252,0,0,0,1709870378,2,18654,18612,18474,18371,18339,18388,18441,18476,16683,560,171,96,6779,-4974,-14318,0,0,0,1709870378,,,,,,,,,,,,,,,,,,,,,,,,,,,,,,,,,,,,,,,,,,,,,,,,,,,,,,,,,,,,,,,,,,,,,,,,,,,,,,,,,,,,,,,,,,,,,,,,,,,,,,,,,,,,,,,,,,,,,,,,
1,31388,30512,30464,30032,31040,39,-198,16845,-149,0,216,1709870379,0,12090,12175,12249,12304,12063,11974,11995,12061,31375,567,234,82,14704,3215,-2220,0,0,0,1709870379,1,18256,18127,18075,18090,18086,17998,18009,18127,13696,315,273,52,14792,-6503,3827,0,0,0,1709870379,2,18327,18121,18152,18108,18110,18133,18183,18245,14307,334,142,148,7057,-4642,-13063,0,0,0,1709870379,,,,,,,,,,,,,,,,,,,,,,,,,,,,,,,,,,,,,,,,,,,,,,,,,,,,,,,,,,,,,,,,,,,,,,,,,,,,,,,,,,,,,,,,,,,,,,,,,,,,,,,,,,,,,,,,,,,,,,,,
1,31500,30748,27340,30180,31016,39,-198,16845,-149,0,216,1709870379,0,12047,12020,12027,12071,12098,12095,12144,12227,31192,280,184,117,15749,3748,-2523,0,0,0,1709870379,1,17478,17586,17679,17750,17734,17672,17665,17610,10102,419,166,99,14836,-7003,3950,0,0,0,1709870379,2,17658,17534,17502,17531,17560,17614,17550,17521,9398,103,191,161,6716,-4548,-14378,0,0,0,1709870379,,,,,,,,,,,,,,,,,,,,,,,,,,,,,,,,,,,,,,,,,,,,,,,,,,,,,,,,,,,,,,,,,,,,,,,,,,,,,,,,,,,,,,,,,,,,,,,,,,,,,,,,,,,,,,,,,,,,,,,,
1,31448,30540,29996,30028,30984,39,-198,16845,-149,0,216,1709870379,0,12131,12173,12227,12295,12274,12159,12128,12145,31995,321,119,49,16532,4945,-2299,0,0,0,1709870379,1,17444,17453,17493,17534,17541,17601,17716,17774,9484,498,338,169,14152,-6446,5696,0,0,0,1709870379,2,17320,17361,17419,17531,17599,17553,17228,17239,8178,674,307,135,7776,-5870,-13561,0,0,0,1709870379,,,,,,,,,,,,,,,,,,,,,,,,,,,,,,,,,,,,,,,,,,,,,,,,,,,,,,,,,,,,,,,,,,,,,,,,,,,,,,,,,,,,,,,,,,,,,,,,,,,,,,,,,,,,,,,,,,,,,,,,
1,31448,30460,30504,30084,31016,39,-198,16845,-149,0,216,1709870379,0,12347,12187,12118,12150,12272,12314,11914,11660,31425,585,906,513,15992,3671,-3258,0,0,0,1709870379,1,18200,17984,17898,17837,17655,17478,17482,17708,11170,1186,482,280,15191,-6833,3838,0,0,0,1709870379,2,18129,17905,17805,17784,17769,17719,17737,17856,11632,562,356,178,6915,-4300,-13911,0,0,0,1709870379,,,,,,,,,,,,,,,,,,,,,,,,,,,,,,,,,,,,,,,,,,,,,,,,,,,,,,,,,,,,,,,,,,,,,,,,,,,,,,,,,,,,,,,,,,,,,,,,,,,,,,,,,,,,,,,,,,,,,,,,
1,31608,27292,30692,30032,31000,39,-198,16845,-149,0,216,1709870379,0,12314,12335,12347,12378,12336,12326,12326,12335,33160,73,56,15,16141,3910,-2306,0,0,0,1709870379,1,18657,18607,18496,18408,18347,18291,18362,18401,16497,640,170,131,14046,-6870,4473,0,0,0,1709870379,2,18236,18201,18270,18392,18465,18459,18353,18390,15694,490,144,107,5974,-4752,-14520,0,0,0,1709870379,,,,,,,,,,,,,,,,,,,,,,,,,,,,,,,,,,,,,,,,,,,,,,,,,,,,,,,,,,,,,,,,,,,,,,,,,,,,,,,,,,,,,,,,,,,,,,,,,,,,,,,,,,,,,,,,,,,,,,,,
1,31496,30044,30580,30020,31004,39,-198,16845,-149,0,216,1709870379,0,12033,12061,12075,12096,12123,12207,12247,12203,31509,370,168,62,15100,4279,-3195,0,0,0,1709870379,1,18316,18344,18345,18444,18507,18553,18320,18229,15986,491,274,110,13961,-6742,4218,0,0,0,1709870379,2,18130,18131,18194,18218,18173,18209,18237,18329,14549,177,243,112,6876,-4604,-13951,0,0,0,1709870379,,,,,,,,,,,,,,,,,,,,,,,,,,,,,,,,,,,,,,,,,,,,,,,,,,,,,,,,,,,,,,,,,,,,,,,,,,,,,,,,,,,,,,,,,,,,,,,,,,,,,,,,,,,,,,,,,,,,,,,,
1,31480,30600,30532,30032,30984,39,-198,16845,-149,0,216,1709870379,0,12083,12040,12040,12264,12395,12490,12371,12165,32312,908,121,112,17250,4264,-3468,0,0,0,1709870379,1,18255,18347,18471,18602,18654,18562,18393,18273,16485,799,56,14,15258,-6909,3783,0,0,0,1709870379,2,18359,18319,18256,18126,18113,18091,18148,18233,14573,520,85,24,7510,-4601,-13365,0,0,0,1709870379,,,,,,,,,,,,,,,,,,,,,,,,,,,,,,,,,,,,,,,,,,,,,,,,,,,,,,,,,,,,,,,,,,,,,,,,,,,,,,,,,,,,,,,,,,,,,,,,,,,,,,,,,,,,,,,,,,,,,,,,
1,31592,27204,30692,30072,31080,39,-198,16845,-149,0,216,1709870379,0,12319,12252,12165,12108,12142,12119,12134,12211,31914,347,170,14,18148,3438,-2743,0,0,0,1709870379,1,17476,17482,17553,17666,17766,17793,17764,17712,10140,665,127,110,12598,-6950,4652,0,0,0,1709870379,2,18009,18044,17930,17795,17716,17681,17696,17746,11545,735,208,91,5826,-5678,-14725,0,0,0,1709870379,,,,,,,,,,,,,,,,,,,,,,,,,,,,,,,,,,,,,,,,,,,,,,,,,,,,,,,,,,,,,,,,,,,,,,,,,,,,,,,,,,,,,,,,,,,,,,,,,,,,,,,,,,,,,,,,,,,,,,,,
1,31536,29124,30556,30040,31016,39,-198,16845,-149,0,216,1709870379,0,12099,12131,12179,12268,12301,12288,12155,12039,31924,480,130,75,15772,3447,-2463,0,0,0,1709870379,1,17589,17709,17761,17718,17626,17526,17537,17520,9914,495,83,52,13815,-6455,4409,0,0,0,1709870379,2,17455,17452,17469,17504,17610,17606,17559,17466,9049,337,95,20,5540,-4639,-14172,0,0,0,1709870379,,,,,,,,,,,,,,,,,,,,,,0,0,0,0,0,0,0,0,0,0,0,0,Attribute not found,Attribute not found,Attribute not found,0,0,0,1709870379,,,,,,,,,,,,,,,,,,,,,,,,,,,,,,,,,,,,,,,,,,,,,,,,,,,,,,,,,,,,,,,,,,,,,,,,,,,,,,,,
1,31492,30604,30548,30088,30996,39,-198,16845,-149,0,216,1709870379,0,12398,12204,11520,11720,12000,12370,12601,12715,31992,2141,309,321,16264,3898,-4162,0,0,0,1709870379,1,18237,18356,18293,17936,17676,17540,17494,17591,12051,1850,389,229,14353,-5918,5023,0,0,0,1709870379,2,17414,17513,17717,18030,18355,18560,18584,18384,13485,2344,631,467,7333,-4278,-13210,0,0,0,1709870379,,,,,,,,,,,,,,,,,,,,,,0,0,0,0,0,0,0,0,0,0,0,0,Attribute not found,Attribute not found,Attribute not found,0,0,0,1709870379,,,,,,,,,,,,,,,,,,,,,,,,,,,,,,,,,,,,,,,,,,,,,,,,,,,,,,,,,,,,,,,,,,,,,,,,,,,,,,,,
1,31628,26932,30736,30060,31072,39,-198,16845,-149,0,216,1709870379,0,12412,12337,12343,12344,12327,12356,12464,12620,33667,424,279,130,18727,3289,-2493,0,0,0,1709870380,1,18469,18636,18659,18588,18521,18495,18391,18415,17102,495,141,54,14362,-6594,5123,0,0,0,1709870380,2,18437,18343,18287,18337,18332,18384,18438,18492,15978,343,111,27,4913,-5939,-14383,0,0,0,1709870380,,,,,,,,,,,,,,,,,,,,,,0,0,0,0,0,0,0,0,0,0,0,0,Attribute not found,Attribute not found,Attribute not found,0,0,0,1709870380,,,,,,,,,,,,,,,,,,,,,,,,,,,,,,,,,,,,,,,,,,,,,,,,,,,,,,,,,,,,,,,,,,,,,,,,,,,,,,,,
1,31544,29556,30616,29980,30972,39,-198,16845,-149,0,216,1709870380,0,11988,12003,12034,12052,12011,12013,12073,12161,30799,131,224,103,14804,4097,-2212,0,0,0,1709870380,1,18123,18040,18045,18061,18061,18067,18137,18219,13681,271,173,49,13908,-7158,3994,0,0,0,1709870380,2,18352,18195,18097,18089,18080,18069,18107,18132,14049,394,232,167,5867,-4797,-14171,0,0,0,1709870380,,,,,,,,,,,,,,,,,,,,,,0,0,0,0,0,0,0,0,0,0,0,0,Attribute not found,Attribute not found,Attribute not found,0,0,0,1709870380,,,,,,,,,,,,,,,,,,,,,,,,,,,,,,,,,,,,,,,,,,,,,,,,,,,,,,,,,,,,,,,,,,,,,,,,,,,,,,,,
1,31428,30528,30536,30028,30996,39,-198,16845,-149,0,216,1709870380,0,12157,12273,12324,12146,12015,12017,12044,12069,31509,581,209,47,15640,3422,-2302,0,0,0,1709870380,1,17657,17631,17641,17641,17580,17593,17691,17797,10159,252,234,68,14901,-6761,3689,0,0,0,1709870380,2,17753,17729,17752,17766,17734,17802,17781,17625,10870,133,147,186,7544,-4345,-13213,0,0,0,1709870380,,,,,,,,,,,,,,,,,,,,,,0,0,0,0,0,0,0,0,0,0,0,0,Attribute not found,Attribute not found,Attribute not found,0,0,0,1709870380,,,,,,,,,,,,,,,,,,,,,,,,,,,,,,,,,,,,,,,,,,,,,,,,,,,,,,,,,,,,,,,,,,,,,,,,,,,,,,,,
1,30444,30404,30532,30092,31036,39,-198,16845,-149,0,216,1709870380,0,12238,12239,12262,12301,12308,12355,12426,12420,33013,337,190,72,13904,3772,-2068,0,0,0,1709870380,1,18136,18163,18088,17980,17771,17829,17846,17859,12600,763,155,228,16099,-8182,2952,0,0,0,1709870380,2,17512,17623,17134,16816,17347,17958,18027,17936,9281,2052,882,413,7444,-5275,-14481,0,0,0,1709870380,,,,,,,,,,,,,,,,,,,,,,0,0,0,0,0,0,0,0,0,0,0,0,Attribute not found,Attribute not found,Attribute not found,0,0,0,1709870380,,,,,,,,,,,,,,,,,,,,,,,,,,,,,,,,,,,,,,,,,,,,,,,,,,,,,,,,,,,,,,,,,,,,,,,,,,,,,,,,
1,28832,29684,30584,30112,30984,39,-198,16845,-149,0,216,1709870380,0,12312,12393,12405,12364,12212,12158,12146,12213,32667,555,37,42,14881,3429,-1310,0,0,0,1709870380,1,17867,17890,17933,17974,18008,18115,18211,18223,13149,625,330,167,15157,-7797,3244,0,0,0,1709870380,2,18123,18102,17762,17803,17916,17976,17880,17932,12422,405,524,118,6003,-4984,-14914,0,0,0,1709870380,,,,,,,,,,,,,,,,,,,,,,0,0,0,0,0,0,0,0,0,0,0,0,Attribute not found,Attribute not found,Attribute not found,0,0,0,1709870380,,,,,,,,,,,,,,,,,,,,,,,,,,,,,,,,,,,,,,,,,,,,,,,,,,,,,,,,,,,,,,,,,,,,,,,,,,,,,,,,
1,31440,30484,30484,30036,30980,39,-198,16845,-149,0,216,1709870380,0,12479,12124,12042,12085,12141,12193,12123,12143,31794,371,463,345,15506,3795,-2624,0,0,0,1709870380,1,18444,18473,18500,18546,18621,18668,18669,18534,17383,440,120,50,14492,-6474,4008,0,0,0,1709870380,2,18276,18353,18268,18321,18337,18438,18558,18649,16128,592,278,232,6606,-4489,-13704,0,0,0,1709870380,,,,,,,,,,,,,,,,,,,,,,0,0,0,0,0,0,0,0,0,0,0,0,Attribute not found,Attribute not found,Attribute not found,0,0,0,1709870380,,,,,,,,,,,,,,,,,,,,,,,,,,,,,,,,,,,,,,,,,,,,,,,,,,,,,,,,,,,,,,,,,,,,,,,,,,,,,,,,
1,31364,30572,30504,30064,31004,39,-198,16845,-149,0,216,1709870380,0,12331,12282,12240,12198,12166,12169,12109,12099,32057,330,213,156,15381,3704,-1772,0,0,0,1709870380,1,18497,18207,18025,18061,18202,18272,18248,18260,14700,565,454,203,15432,-7377,3796,0,0,0,1709870380,2,18538,18738,18879,18070,17928,17966,18162,18360,15569,1723,636,401,7499,-5261,-14943,0,0,0,1709870380,,,,,,,,,,,,,,,,,,,,,,0,0,0,0,0,0,0,0,0,0,0,0,Attribute not found,Attribute not found,Attribute not found,0,0,0,1709870380,,,,,,,,,,,,,,,,,,,,,,,,,,,,,,,,,,,,,,,,,,,,,,,,,,,,,,,,,,,,,,,,,,,,,,,,,,,,,,,,
1,29064,29564,30576,30064,30972,39,-198,16845,-149,0,216,1709870380,0,12381,12320,12163,12051,11982,11984,11997,12040,31381,751,294,186,16135,4122,-1668,0,0,0,1709870380,1,17677,17787,17779,17584,17323,17271,17327,17381,9057,1119,141,144,15046,-7689,3709,0,0,0,1709870380,2,17988,18087,18110,18038,17844,17855,17797,17748,12395,689,173,193,5622,-4933,-14333,0,0,0,1709870380,,,,,,,,,,,,,,,,,,,,,,0,0,0,0,0,0,0,0,0,0,0,0,Attribute not found,Attribute not found,Attribute not found,0,0,0,1709870380,,,,,,,,,,,,,,,,,,,,,,,,,,,,,,,,,,,,,,,,,,,,,,,,,,,,,,,,,,,,,,,,,,,,,,,,,,,,,,,,
1,31036,30576,30548,30088,30992,39,-198,16845,-149,0,216,1709870380,0,12069,12013,12001,12068,11997,11908,11846,11872,30238,367,219,148,15371,3793,-3669,0,0,0,1709870380,1,17451,17425,17169,17178,17226,17248,17249,17247,7121,398,358,164,14583,-6714,4540,0,0,0,1709870380,2,17249,17313,17407,17465,17439,17339,17264,17276,7680,428,90,47,8651,-4437,-13722,0,0,0,1709870380,,,,,,,,,,,,,,,,,,,,,,0,0,0,0,0,0,0,0,0,0,0,0,Attribute not found,Attribute not found,Attribute not found,0,0,0,1709870380,,,,,,,,,,,,,,,,,,,,,,,,,,,,,,,,,,,,,,,,,,,,,,,,,,,,,,,,,,,,,,,,,,,,,,,,,,,,,,,,
1,31452,30520,30464,30060,31012,39,-198,16845,-149,0,216,1709870381,0,11955,12061,12154,12254,12370,12525,12637,12700,33120,1204,593,433,16737,4087,-3102,0,0,0,1709870381,1,18008,18157,18265,18337,18291,18167,18093,18096,14342,569,123,105,14269,-6427,4482,0,0,0,1709870381,2,17712,17602,17548,17594,17577,17572,17617,17688,9838,250,164,52,7480,-4678,-13460,0,0,0,1709870381,,,,,,,,,,,,,,,,,,,,,,0,0,0,0,0,0,0,0,0,0,0,0,Attribute not found,Attribute not found,Attribute not found,0,0,0,1709870381,,,,,,,,,,,,,,,,,,,,,,,,,,,,,,,,,,,,,,,,,,,,,,,,,,,,,,,,,,,,,,,,,,,,,,,,,,,,,,,,
1,30912,30348,30484,30052,30928,39,-198,16845,-149,0,216,1709870381,0,11739,11955,12132,12262,12437,12631,12815,12797,33231,1733,904,622,15896,2803,-1493,0,0,0,1709870381,1,18671,18795,18964,19040,18901,18712,18631,18691,19333,763,225,50,14236,-7873,2470,0,0,0,1709870381,2,18192,18382,18630,18684,18506,18332,18299,18371,16324,771,411,148,4520,-4533,-14222,0,0,0,1709870381,,,,,,,,,,,,,,,,,,,,,,0,0,0,0,0,0,0,0,0,0,0,0,Attribute not found,Attribute not found,Attribute not found,0,0,0,1709870381,,,,,,,,,,,,,,,,,,,,,,,,,,,,,,,,,,,,,,,,,,,,,,,,,,,,,,,,,,,,,,,,,,,,,,,,,,,,,,,,
1,29200,29432,30648,30052,31060,39,-198,16845,-149,0,216,1709870381,0,12141,12166,12199,12277,12361,12433,12406,12297,32744,569,105,45,14816,4114,-2465,0,0,0,1709870381,1,18246,18184,18167,18187,18205,18206,18273,18395,14791,319,192,106,15404,-7247,3885,0,0,0,1709870381,2,18409,18397,18414,18410,18433,18531,18592,18600,16714,407,183,81,6753,-5173,-14709,0,0,0,1709870381,,,,,,,,,,,,,,,,,,,,,,0,0,0,0,0,0,0,0,0,0,0,0,Attribute not found,Attribute not found,Attribute not found,0,0,0,1709870381,,,,,,,,,,,,,,,,,,,,,,,,,,,,,,,,,,,,,,,,,,,,,,,,,,,,,,,,,,,,,,,,,,,,,,,,,,,,,,,,
1,31124,30036,30556,30036,31064,39,-198,16845,-149,0,216,1709870381,0,12156,12022,11767,11675,11760,11875,11947,11991,29656,782,306,91,14682,3216,-2805,0,0,0,1709870381,1,17668,17623,17296,17309,17353,17392,17333,17384,8286,536,507,177,15312,-6464,4425,0,0,0,1709870381,2,17524,17532,17581,17632,17696,17625,17676,17799,9993,303,276,241,8030,-4345,-13495,0,0,0,1709870381,,,,,,,,,,,,,,,,,,,,,,0,0,0,0,0,0,0,0,0,0,0,0,Attribute not found,Attribute not found,Attribute not found,0,0,0,1709870381,,,,,,,,,,,,,,,,,,,,,,,,,,,,,,,,,,,,,,,,,,,,,,,,,,,,,,,,,,,,,,,,,,,,,,,,,,,,,,,,
1,31536,30112,30500,30092,31072,39,-198,16845,-149,0,216,1709870381,0,12723,12173,11628,11402,11816,12410,12184,12643,31442,2275,904,527,16030,3866,-3176,0,0,0,1709870381,1,17880,17821,17739,17654,17625,17608,17595,17571,10421,495,266,175,14833,-6613,4341,0,0,0,1709870381,2,17662,17583,17557,17599,17619,17610,17417,17581,9556,134,307,164,7445,-4470,-13493,0,0,0,1709870381,,,,,,,,,,,,,,,,,,,,,,0,0,0,0,0,0,0,0,0,0,0,0,Attribute not found,Attribute not found,Attribute not found,0,0,0,1709870381,,,,,,,,,,,,,,,,,,,,,,,,,,,,,,,,,,,,,,,,,,,,,,,,,,,,,,,,,,,,,,,,,,,,,,,,,,,,,,,,
1,31652,26748,30732,30080,31040,39,-198,16845,-149,0,216,1709870381,0,12327,12357,12361,12399,12497,12464,12427,12317,33613,314,111,60,14386,3412,-2558,0,0,0,1709870381,1,18251,18280,18315,18441,18556,18613,18417,18339,16140,667,135,61,15852,-7017,4151,0,0,0,1709870381,2,17906,17954,18030,18101,18189,18082,18172,18242,13604,430,325,296,7519,-4465,-13891,0,0,0,1709870381,,,,,,,,,,,,,,,,,,,,,,0,0,0,0,0,0,0,0,0,0,0,0,Attribute not found,Attribute not found,Attribute not found,0,0,0,1709870381,,,,,,,,,,,,,,,,,,,,,,,,,,,,,,,,,,,,,,,,,,,,,,,,,,,,,,,,,,,,,,,,,,,,,,,,,,,,,,,,
1,31484,30220,30508,30032,31104,39,-198,16845,-149,0,216,1709870381,0,12106,12088,12086,12192,12275,12296,12284,12180,31970,467,16,60,15594,4335,-3951,0,0,0,1709870381,1,18585,18458,18343,18302,18301,18325,18328,18395,15965,445,231,124,15828,-6897,4631,0,0,0,1709870381,2,18056,18024,17994,18015,18078,18153,18193,18267,13708,472,117,129,8115,-4883,-13774,0,0,0,1709870381,,,,,,,,,,,,,,,,,,,,,,0,0,0,0,0,0,0,0,0,0,0,0,Attribute not found,Attribute not found,Attribute not found,0,0,0,1709870381,5,0,0,0,0,0,0,0,0,0,0,0,0,Attribute not found,Attribute not found,Attribute not found,0,0,0,1709870381,,,,,,,,,,,,,,,,,,,,,,,,,,,,,,,,,,,,,,,,,,,,,,,,,,,,,,,,,,,,
1,31540,30740,29308,30148,31048,39,-198,16845,-149,0,216,1709870381,0,12210,12054,11962,11980,12022,12023,12095,12151,30961,404,183,56,16093,3934,-2628,0,0,0,1709870381,1,18077,18155,18145,18241,18344,18343,18201,17967,14401,593,299,131,15490,-6511,3645,0,0,0,1709870381,2,18147,18150,18139,18140,18142,18167,18207,18211,14231,137,66,33,7361,-4482,-14169,0,0,0,1709870381,,,,,,,,,,,,,,,,,,,,,,0,0,0,0,0,0,0,0,0,0,0,0,Attribute not found,Attribute not found,Attribute not found,0,0,0,1709870381,5,0,0,0,0,0,0,0,0,0,0,0,0,Attribute not found,Attribute not found,Attribute not found,0,0,0,1709870381,,,,,,,,,,,,,,,,,,,,,,,,,,,,,,,,,,,,,,,,,,,,,,,,,,,,,,,,,,,,
1,31456,30676,27448,30136,30992,39,-198,16845,-149,0,216,1709870381,0,12235,12148,12010,11968,11995,12034,12041,12079,30974,400,224,87,16645,3604,-2283,0,0,0,1709870381,1,17764,17798,17696,17576,17451,17414,17410,17457,9494,813,209,143,14848,-6588,3800,0,0,0,1709870381,2,17828,17708,17623,17583,17585,17612,17737,17926,10530,624,196,90,6642,-4615,-14327,0,0,0,1709870381,,,,,,,,,,,,,,,,,,,,,,0,0,0,0,0,0,0,0,0,0,0,0,Attribute not found,Attribute not found,Attribute not found,0,0,0,1709870381,5,0,0,0,0,0,0,0,0,0,0,0,0,Attribute not found,Attribute not found,Attribute not found,0,0,0,1709870381,,,,,,,,,,,,,,,,,,,,,,,,,,,,,,,,,,,,,,,,,,,,,,,,,,,,,,,,,,,,
1,31472,30592,30400,30056,31008,39,-198,16845,-149,0,216,1709870382,0,12250,12267,12218,12123,12027,12004,12034,12076,31463,551,76,78,14572,3017,-3368,0,0,0,1709870382,1,17869,17837,17739,17683,17668,17685,17734,17722,10865,346,133,99,15360,-6254,4255,0,0,0,1709870382,2,17589,17680,17706,17699,17387,17361,17386,17363,9099,805,117,257,8052,-4204,-13154,0,0,0,1709870382,,,,,,,,,,,,,,,,,,,,,,0,0,0,0,0,0,0,0,0,0,0,0,Attribute not found,Attribute not found,Attribute not found,0,0,0,1709870382,5,0,0,0,0,0,0,0,0,0,0,0,0,Attribute not found,Attribute not found,Attribute not found,0,0,0,1709870382,,,,,,,,,,,,,,,,,,,,,,,,,,,,,,,,,,,,,,,,,,,,,,,,,,,,,,,,,,,,
1,31496,30540,30540,29576,31068,39,-198,16845,-149,0,216,1709870382,0,12374,12371,12098,12118,12127,12184,12153,12164,32053,414,370,175,15802,3566,-2354,0,0,0,1709870382,1,18331,18451,18485,18473,18407,18443,18511,18503,16532,64,270,103,14757,-6635,3829,0,0,0,1709870382,2,17712,17791,17852,17799,17615,17551,17608,17600,10456,568,144,95,6813,-4276,-13627,0,0,0,1709870382,,,,,,,,,,,,,,,,,,,,,,0,0,0,0,0,0,0,0,0,0,0,0,Attribute not found,Attribute not found,Attribute not found,0,0,0,1709870382,5,0,0,0,0,0,0,0,0,0,0,0,0,Attribute not found,Attribute not found,Attribute not found,0,0,0,1709870382,,,,,,,,,,,,,,,,,,,,,,,,,,,,,,,,,,,,,,,,,,,,,,,,,,,,,,,,,,,,
1,31472,30604,30688,27140,31020,39,-198,16845,-149,0,216,1709870382,0,12390,12467,12484,12458,12215,12239,12253,12274,33244,561,134,156,15541,3587,-2100,0,0,0,1709870382,1,18566,18572,18524,18427,18370,18327,18328,18333,16375,530,162,99,15121,-6675,3840,0,0,0,1709870382,2,18179,18195,18274,18346,18390,18346,18193,18122,14973,494,125,61,6969,-4355,-14164,0,0,0,1709870382,,,,,,,,,,,,,,,,,,,,,,0,0,0,0,0,0,0,0,0,0,0,0,Attribute not found,Attribute not found,Attribute not found,0,0,0,1709870382,5,0,0,0,0,0,0,0,0,0,0,0,0,Attribute not found,Attribute not found,Attribute not found,0,0,0,1709870382,,,,,,,,,,,,,,,,,,,,,,,,,,,,,,,,,,,,,,,,,,,,,,,,,,,,,,,,,,,,
1,31472,30604,30608,29632,30984,39,-198,16845,-149,0,216,1709870382,0,12300,12355,12365,12273,12130,12111,12138,12180,32316,541,74,64,15947,3977,-2873,0,0,0,1709870382,1,17674,17796,17859,17887,17854,17710,17592,17525,10825,693,121,52,15195,-6814,4388,0,0,0,1709870382,2,18509,18578,18534,18305,18332,18325,18356,18346,16213,505,256,41,7602,-4691,-13972,0,0,0,1709870382,,,,,,,,,,,,,,,,,,,,,,0,0,0,0,0,0,0,0,0,0,0,0,Attribute not found,Attribute not found,Attribute not found,0,0,0,1709870382,5,0,0,0,0,0,0,0,0,0,0,0,0,Attribute not found,Attribute not found,Attribute not found,0,0,0,1709870382,,,,,,,,,,,,,,,,,,,,,,,,,,,,,,,,,,,,,,,,,,,,,,,,,,,,,,,,,,,,
1,31460,30516,30552,30056,30988,39,-198,16845,-149,0,216,1709870382,0,12088,12144,12209,12284,12275,12160,12044,12028,31696,505,110,7,15581,3488,-3001,0,0,0,1709870382,1,17316,17425,17452,17472,17362,17271,17276,17292,7794,417,84,66,14760,-6181,4208,0,0,0,1709870382,2,17879,17944,18048,18107,18090,18014,17798,17832,12640,602,124,110,7334,-4295,-13674,0,0,0,1709870382,,,,,,,,,,,,,,,,,,,,,,0,0,0,0,0,0,0,0,0,0,0,0,Attribute not found,Attribute not found,Attribute not found,0,0,0,1709870382,5,0,0,0,0,0,0,0,0,0,0,0,0,Attribute not found,Attribute not found,Attribute not found,0,0,0,1709870382,,,,,,,,,,,,,,,,,,,,,,,,,,,,,,,,,,,,,,,,,,,,,,,,,,,,,,,,,,,,
1,31440,30548,30560,29980,30880,39,-198,16845,-149,0,216,1709870382,0,12368,12103,12100,12142,12151,12125,12148,12187,31788,252,289,200,15538,3519,-2870,0,0,0,1709870382,1,17883,17808,17739,17709,17731,17764,17834,17968,11364,441,112,84,14662,-6377,4566,0,0,0,1709870382,2,17433,17495,17595,17668,17708,17683,17520,17440,9470,578,74,50,7036,-4315,-13816,0,0,0,1709870382,,,,,,,,,,,,,,,,,,,,,,0,0,0,0,0,0,0,0,0,0,0,0,Attribute not found,Attribute not found,Attribute not found,0,0,0,1709870382,5,0,0,0,0,0,0,0,0,0,0,0,0,Attribute not found,Attribute not found,Attribute not found,0,0,0,1709870382,,,,,,,,,,,,,,,,,,,,,,,,,,,,,,,,,,,,,,,,,,,,,,,,,,,,,,,,,,,,
1,31520,30560,30612,29948,30816,39,-198,16845,-149,0,216,1709870382,0,12357,12203,12152,12167,12207,12220,12223,12337,32330,328,205,74,15746,3768,-2396,0,0,0,1709870382,1,18656,18622,18522,18453,18436,18453,18450,18429,16949,384,227,133,15178,-6824,4312,0,0,0,1709870382,2,17576,17581,17573,17641,17772,17855,17910,17876,10712,731,157,169,7111,-4665,-14007,0,0,0,1709870382,,,,,,,,,,,,,,,,,,,,,,0,0,0,0,0,0,0,0,0,0,0,0,Attribute not found,Attribute not found,Attribute not found,0,0,0,1709870382,5,0,0,0,0,0,0,0,0,0,0,0,0,Attribute not found,Attribute not found,Attribute not found,0,0,0,1709870382,6,0,0,0,0,0,0,0,0,0,0,0,0,Attribute not found,Attribute not found,Attribute not found,0,0,0,1709870382,,,,,,,,,,,,,,,,,,,,,,,,,,,,,,,,,,,,,,,,
1,31536,30588,30608,29856,30336,39,-198,16845,-149,0,216,1709870382,0,12190,12179,12221,12338,12344,12259,12136,12109,32240,418,177,67,16033,3785,-2265,0,0,0,1709870382,1,18400,18521,18608,18601,18475,18343,18320,18340,16536,613,93,27,15186,-6757,3987,0,0,0,1709870382,2,18019,17975,17999,18008,18072,18079,18155,18218,13453,378,183,143,7168,-4693,-14393,0,0,0,1709870382,,,,,,,,,,,,,,,,,,,,,,0,0,0,0,0,0,0,0,0,0,0,0,Attribute not found,Attribute not found,Attribute not found,0,0,0,1709870382,5,0,0,0,0,0,0,0,0,0,0,0,0,Attribute not found,Attribute not found,Attribute not found,0,0,0,1709870382,6,0,0,0,0,0,0,0,0,0,0,0,0,Attribute not found,Attribute not found,Attribute not found,0,0,0,1709870382,,,,,,,,,,,,,,,,,,,,,,,,,,,,,,,,,,,,,,,,
1,31464,30556,30616,30016,30968,39,-198,16845,-149,0,216,1709870382,0,12065,12085,12106,12102,12108,12125,12149,12217,31421,152,136,116,16001,3602,-2457,0,0,0,1709870382,1,17903,17847,17816,17838,17884,17929,17984,18052,12181,393,114,85,15024,-6541,4028,0,0,0,1709870382,2,18524,18488,18299,18224,18243,18313,18362,18393,15774,527,212,77,6991,-4507,-14072,0,0,0,1709870382,,,,,,,,,,,,,,,,,,,,,,0,0,0,0,0,0,0,0,0,0,0,0,Attribute not found,Attribute not found,Attribute not found,0,0,0,1709870382,5,0,0,0,0,0,0,0,0,0,0,0,0,Attribute not found,Attribute not found,Attribute not found,0,0,0,1709870382,6,0,0,0,0,0,0,0,0,0,0,0,0,Attribute not found,Attribute not found,Attribute not found,0,0,0,1709870382,,,,,,,,,,,,,,,,,,,,,,,,,,,,,,,,,,,,,,,,
1,31496,30536,30536,29984,30996,39,-198,16845,-149,0,216,1709870382,0,12094,12069,12056,12075,12118,12165,12250,12284,31575,413,156,106,15562,3520,-2574,0,0,0,1709870382,1,17575,17607,17626,17575,17517,17492,17443,17431,9194,368,95,78,14818,-6433,3903,0,0,0,1709870382,2,18483,18541,18565,18513,18423,18350,18289,18295,16387,566,97,80,7026,-4247,-13630,0,0,0,1709870382,,,,,,,,,,,,,,,,,,,,,,0,0,0,0,0,0,0,0,0,0,0,0,Attribute not found,Attribute not found,Attribute not found,0,0,0,1709870382,5,0,0,0,0,0,0,0,0,0,0,0,0,Attribute not found,Attribute not found,Attribute not found,0,0,0,1709870382,6,0,0,0,0,0,0,0,0,0,0,0,0,Attribute not found,Attribute not found,Attribute not found,0,0,0,1709870382,,,,,,,,,,,,,,,,,,,,,,,,,,,,,,,,,,,,,,,,
1,31440,30552,30560,28520,30948,39,-198,16845,-149,0,216,1709870383,0,12176,12225,12220,12191,12196,12236,12285,12377,32370,229,170,161,16088,3787,-2692,0,0,0,1709870383,1,17694,17623,17683,17709,17692,17672,17706,17822,10529,145,236,101,14429,-6495,4224,0,0,0,1709870383,2,18212,18133,18158,18238,18283,18210,18054,18090,14306,276,283,103,6877,-4473,-14048,0,0,0,1709870383,,,,,,,,,,,,,,,,,,,,,,0,0,0,0,0,0,0,0,0,0,0,0,Attribute not found,Attribute not found,Attribute not found,0,0,0,1709870383,5,0,0,0,0,0,0,0,0,0,0,0,0,Attribute not found,Attribute not found,Attribute not found,0,0,0,1709870383,6,0,0,0,0,0,0,0,0,0,0,0,0,Attribute not found,Attribute not found,Attribute not found,0,0,0,1709870383,,,,,,,,,,,,,,,,,,,,,,,,,,,,,,,,,,,,,,,,
1,31476,30468,30644,25896,30932,39,-198,16845,-149,0,216,1709870383,0,12196,12280,12365,12394,12402,12163,12162,12173,32599,522,142,137,15815,3912,-2478,0,0,0,1709870383,1,18302,18336,18358,18445,18524,18547,18480,18334,16254,489,104,51,15059,-6744,4115,0,0,0,1709870383,2,17745,17714,17575,17535,17558,17582,17587,17591,9815,322,220,85,7142,-4551,-14149,0,0,0,1709870383,,,,,,,,,,,,,,,,,,,,,,0,0,0,0,0,0,0,0,0,0,0,0,Attribute not found,Attribute not found,Attribute not found,0,0,0,1709870383,5,0,0,0,0,0,0,0,0,0,0,0,0,Attribute not found,Attribute not found,Attribute not found,0,0,0,1709870383,6,0,0,0,0,0,0,0,0,0,0,0,0,Attribute not found,Attribute not found,Attribute not found,0,0,0,1709870383,,,,,,,,,,,,,,,,,,,,,,,,,,,,,,,,,,,,,,,,
1,31440,30484,30496,29452,30992,39,-198,16845,-149,0,216,1709870383,0,12282,12228,12078,12016,12019,12024,12050,12060,31220,460,246,122,15891,4368,-3767,0,0,0,1709870383,1,18454,18317,18273,18298,18321,18374,18383,18435,15783,311,126,81,14752,-6326,4732,0,0,0,1709870383,2,17544,17581,17680,17753,17792,17755,17627,17521,10181,543,68,40,7439,-4316,-13781,0,0,0,1709870383,,,,,,,,,,,,,,,,,,,,,,0,0,0,0,0,0,0,0,0,0,0,0,Attribute not found,Attribute not found,Attribute not found,0,0,0,1709870383,5,0,0,0,0,0,0,0,0,0,0,0,0,Attribute not found,Attribute not found,Attribute not found,0,0,0,1709870383,6,0,0,0,0,0,0,0,0,0,0,0,0,Attribute not found,Attribute not found,Attribute not found,0,0,0,1709870383,,,,,,,,,,,,,,,,,,,,,,,,,,,,,,,,,,,,,,,,
1,31440,30492,30476,30008,31084,39,-198,16845,-149,0,216,1709870383,0,12146,12123,12096,12098,12133,12214,12258,12266,31798,351,79,46,15604,3485,-2657,0,0,0,1709870383,1,17734,17721,17701,17749,17825,17866,17885,17810,11219,362,38,49,14351,-6399,4250,0,0,0,1709870383,2,18200,18205,18056,17907,17922,17979,17962,18003,13162,538,293,50,7123,-4419,-13576,0,0,0,1709870383,,,,,,,,,,,,,,,,,,,,,,0,0,0,0,0,0,0,0,0,0,0,0,Attribute not found,Attribute not found,Attribute not found,0,0,0,1709870383,5,0,0,0,0,0,0,0,0,0,0,0,0,Attribute not found,Attribute not found,Attribute not found,0,0,0,1709870383,6,0,0,0,0,0,0,0,0,0,0,0,0,Attribute not found,Attribute not found,Attribute not found,0,0,0,1709870383,,,,,,,,,,,,,,,,,,,,,,,,,,,,,,,,,,,,,,,,
1,31520,30556,29920,30096,31020,39,-198,16845,-149,0,216,1709870383,0,12447,12428,12329,12215,12218,12239,12270,12298,32908,442,167,39,15431,3471,-3105,0,0,0,1709870383,1,17460,17528,17595,17667,17719,17787,17754,17612,10050,568,173,39,14901,-6510,3554,0,0,0,1709870383,2,18639,18686,18701,18708,18707,18767,18827,18832,18795,273,201,100,7194,-4760,-13968,0,0,0,1709870383,,,,,,,,,,,,,,,,,,,,,,0,0,0,0,0,0,0,0,0,0,0,0,Attribute not found,Attribute not found,Attribute not found,0,0,0,1709870383,5,0,0,0,0,0,0,0,0,0,0,0,0,Attribute not found,Attribute not found,Attribute not found,0,0,0,1709870383,6,0,0,0,0,0,0,0,0,0,0,0,0,Attribute not found,Attribute not found,Attribute not found,0,0,0,1709870383,,,,,,,,,,,,,,,,,,,,,,,,,,,,,,,,,,,,,,,,
1,31444,30672,27732,30168,30980,39,-198,16845,-149,0,216,1709870383,0,12186,12221,12166,12209,12235,12301,12344,12389,32514,362,117,119,15956,3681,-2353,0,0,0,1709870383,1,18048,17892,17830,17871,17900,17933,17977,18072,12451,411,183,42,15084,-6565,4104,0,0,0,1709870383,2,18355,18425,18467,18514,18472,18286,18155,18093,15695,775,229,117,7118,-4311,-14135,0,0,0,1709870383,,,,,,,,,,,,,,,,,,,,,,0,0,0,0,0,0,0,0,0,0,0,0,Attribute not found,Attribute not found,Attribute not found,0,0,0,1709870383,5,0,0,0,0,0,0,0,0,0,0,0,0,Attribute not found,Attribute not found,Attribute not found,0,0,0,1709870383,6,0,0,0,0,0,0,0,0,0,0,0,0,Attribute not found,Attribute not found,Attribute not found,0,0,0,1709870383,,,,,,,,,,,,,,,,,,,,,,,,,,,,,,,,,,,,,,,,
1,31480,30520,30340,30056,30932,39,-198,16845,-149,0,216,1709870383,0,12152,12232,12269,12278,12226,11997,12051,12061,31730,541,124,133,16022,4273,-2849,0,0,0,1709870383,1,18426,18437,18447,18500,18608,18655,18669,18543,17213,508,95,69,14313,-6238,5313,0,0,0,1709870383,2,17580,17500,17295,17260,17311,17290,17291,17360,7815,495,349,89,7398,-4359,-13632,0,0,0,1709870383,,,,,,,,,,,,,,,,,,,,,,0,0,0,0,0,0,0,0,0,0,0,0,Attribute not found,Attribute not found,Attribute not found,0,0,0,1709870383,5,0,0,0,0,0,0,0,0,0,0,0,0,Attribute not found,Attribute not found,Attribute not found,0,0,0,1709870383,6,0,0,0,0,0,0,0,0,0,0,0,0,Attribute not found,Attribute not found,Attribute not found,0,0,0,1709870383,,,,,,,,,,,,,,,,,,,,,,,,,,,,,,,,,,,,,,,,
1,31444,30512,30536,29992,30956,39,-198,16845,-149,0,216,1709870384,0,12247,12092,12000,11994,12031,12087,12130,12206,31250,461,149,64,16244,3865,-2842,0,0,0,1709870384,1,18314,18362,18396,18271,18137,18055,18048,18058,14569,755,88,112,14419,-6578,4354,0,0,0,1709870384,2,17575,17626,17513,17387,17329,17341,17364,17374,8437,567,207,81,7286,-4352,-13504,0,0,0,1709870384,,,,,,,,,,,,,,,,,,,,,,0,0,0,0,0,0,0,0,0,0,0,0,Attribute not found,Attribute not found,Attribute not found,0,0,0,1709870384,5,0,0,0,0,0,0,0,0,0,0,0,0,Attribute not found,Attribute not found,Attribute not found,0,0,0,1709870384,6,0,0,0,0,0,0,0,0,0,0,0,0,Attribute not found,Attribute not found,Attribute not found,0,0,0,1709870384,7,0,0,0,0,0,0,0,0,0,0,0,0,Attribute not found,Attribute not found,Attribute not found,0,0,0,1709870384,,,,,,,,,,,,,,,,,,,,
1,31592,30488,30568,29996,30956,39,-198,16845,-149,0,216,1709870384,0,12622,12422,12250,12650,12897,12760,12314,12119,34498,892,1040,394,14690,3313,-2076,0,0,0,1709870384,1,17704,17641,17548,17611,17732,17736,17718,17630,10248,263,217,93,13721,-5864,4301,0,0,0,1709870384,2,18139,18265,18344,18338,18337,18499,18698,18742,16290,808,648,332,6672,-4109,-13935,0,0,0,1709870384,,,,,,,,,,,,,,,,,,,,,,0,0,0,0,0,0,0,0,0,0,0,0,Attribute not found,Attribute not found,Attribute not found,0,0,0,1709870384,5,0,0,0,0,0,0,0,0,0,0,0,0,Attribute not found,Attribute not found,Attribute not found,0,0,0,1709870384,6,0,0,0,0,0,0,0,0,0,0,0,0,Attribute not found,Attribute not found,Attribute not found,0,0,0,1709870384,7,0,0,0,0,0,0,0,0,0,0,0,0,Attribute not found,Attribute not found,Attribute not found,0,0,0,1709870384,,,,,,,,,,,,,,,,,,,,
1,31676,26956,30768,30068,31040,39,-198,16845,-149,0,216,1709870384,0,13125,13329,13249,12595,11864,11563,11452,11338,32978,4255,1001,963,14419,3467,-2863,0,0,0,1709870384,1,18121,18109,17944,17647,17230,16998,16880,16891,8748,2643,775,689,15685,-6832,4326,0,0,0,1709870384,2,18022,18234,18494,18692,18769,18684,18512,18502,16837,1216,349,337,7734,-4407,-14071,0,0,0,1709870384,,,,,,,,,,,,,,,,,,,,,,0,0,0,0,0,0,0,0,0,0,0,0,Attribute not found,Attribute not found,Attribute not found,0,0,0,1709870384,5,0,0,0,0,0,0,0,0,0,0,0,0,Attribute not found,Attribute not found,Attribute not found,0,0,0,1709870384,6,0,0,0,0,0,0,0,0,0,0,0,0,Attribute not found,Attribute not found,Attribute not found,0,0,0,1709870384,7,0,0,0,0,0,0,0,0,0,0,0,0,Attribute not found,Attribute not found,Attribute not found,0,0,0,1709870384,,,,,,,,,,,,,,,,,,,,
1,31656,26596,30764,30100,31016,39,-198,16845,-149,0,216,1709870384,0,11925,11886,11949,11989,12076,12237,12285,12337,31148,844,309,217,15115,3634,-2931,0,0,0,1709870384,1,17973,17959,17985,18015,18026,17932,17758,17845,12421,397,257,100,14886,-6648,4709,0,0,0,1709870384,2,17922,17958,17954,17919,17611,17584,17672,17782,11330,801,184,163,7535,-4574,-13740,0,0,0,1709870384,,,,,,,,,,,,,,,,,,,,,,0,0,0,0,0,0,0,0,0,0,0,0,Attribute not found,Attribute not found,Attribute not found,0,0,0,1709870384,5,0,0,0,0,0,0,0,0,0,0,0,0,Attribute not found,Attribute not found,Attribute not found,0,0,0,1709870384,6,0,0,0,0,0,0,0,0,0,0,0,0,Attribute not found,Attribute not found,Attribute not found,0,0,0,1709870384,7,0,0,0,0,0,0,0,0,0,0,0,0,Attribute not found,Attribute not found,Attribute not found,0,0,0,1709870384,8,0,0,0,0,0,0,0,0,0,0,0,0,Attribute not found,Attribute not found,Attribute not found,0,0,0,1709870384
1,31484,30404,30516,29984,31016,39,-198,16845,-149,0,216,1709870384,0,12056,12044,12061,12190,12271,12264,12151,11992,31493,521,170,109,15998,3922,-3214,0,0,0,1709870384,1,18533,18524,18559,18683,18758,18742,18659,18524,17910,511,93,71,14371,-6411,4688,0,0,0,1709870384,2,17248,17253,17240,17307,17436,17495,17533,17469,7909,628,93,131,7601,-4153,-13735,0,0,0,1709870384,,,,,,,,,,,,,,,,,,,,,,0,0,0,0,0,0,0,0,0,0,0,0,Attribute not found,Attribute not found,Attribute not found,0,0,0,1709870384,5,0,0,0,0,0,0,0,0,0,0,0,0,Attribute not found,Attribute not found,Attribute not found,0,0,0,1709870384,6,0,0,0,0,0,0,0,0,0,0,0,0,Attribute not found,Attribute not found,Attribute not found,0,0,0,1709870384,7,0,0,0,0,0,0,0,0,0,0,0,0,Attribute not found,Attribute not found,Attribute not found,0,0,0,1709870384,8,0,0,0,0,0,0,0,0,0,0,0,0,Attribute not found,Attribute not found,Attribute not found,0,0,0,1709870384
1,31460,30564,30616,30044,30960,39,-198,16845,-149,0,216,1709870384,0,12239,12314,12338,12349,12363,12362,12171,12088,32687,467,256,95,16806,3999,-2506,0,0,0,1709870384,1,18018,18057,18114,18040,18088,18167,18247,18305,13964,400,282,222,14623,-6164,4315,0,0,0,1709870384,2,17674,17735,17798,17707,17751,17883,17973,18008,11457,493,359,233,7454,-4155,-13289,0,0,0,1709870384,,,,,,,,,,,,,,,,,,,,,,0,0,0,0,0,0,0,0,0,0,0,0,Attribute not found,Attribute not found,Attribute not found,0,0,0,1709870384,5,0,0,0,0,0,0,0,0,0,0,0,0,Attribute not found,Attribute not found,Attribute not found,0,0,0,1709870384,6,0,0,0,0,0,0,0,0,0,0,0,0,Attribute not found,Attribute not found,Attribute not found,0,0,0,1709870384,7,0,0,0,0,0,0,0,0,0,0,0,0,Attribute not found,Attribute not found,Attribute not found,0,0,0,1709870384,8,0,0,0,0,0,0,0,0,0,0,0,0,Attribute not found,Attribute not found,Attribute not found,0,0,0,1709870384
1,30188,30332,30572,30056,31004,39,-198,16845,-149,0,216,1709870384,0,12505,12439,12469,12556,12559,12507,12476,12555,34529,116,203,40,15392,4205,-2377,0,0,0,1709870384,1,17429,17297,17273,17379,17468,17483,17557,17708,8522,651,314,161,16953,-7048,3761,0,0,0,1709870384,2,18950,19074,19058,19025,18484,18268,18286,18395,18468,1882,119,419,5405,-4812,-14419,0,0,0,1709870384,,,,,,,,,,,,,,,,,,,,,,0,0,0,0,0,0,0,0,0,0,0,0,Attribute not found,Attribute not found,Attribute not found,0,0,0,1709870384,5,0,0,0,0,0,0,0,0,0,0,0,0,Attribute not found,Attribute not found,Attribute not found,0,0,0,1709870384,6,0,0,0,0,0,0,0,0,0,0,0,0,Attribute not found,Attribute not found,Attribute not found,0,0,0,1709870384,7,0,0,0,0,0,0,0,0,0,0,0,0,Attribute not found,Attribute not found,Attribute not found,0,0,0,1709870384,8,0,0,0,0,0,0,0,0,0,0,0,0,Attribute not found,Attribute not found,Attribute not found,0,0,0,1709870384
1,30096,28516,30740,30104,31008,39,-198,16845,-149,0,216,1709870384,0,12375,12245,12135,12076,12055,12077,12099,12157,31683,505,215,146,15329,3444,-2439,0,0,0,1709870384,1,17688,17758,17805,17787,17616,17565,17620,17675,10442,421,184,34,14795,-7102,3692,0,0,0,1709870384,2,18157,18196,18129,17979,17921,17971,18013,18026,13320,491,174,44,6483,-4541,-14150,0,0,0,1709870384,,,,,,,,,,,,,,,,,,,,,,0,0,0,0,0,0,0,0,0,0,0,0,Attribute not found,Attribute not found,Attribute not found,0,0,0,1709870384,5,0,0,0,0,0,0,0,0,0,0,0,0,Attribute not found,Attribute not found,Attribute not found,0,0,0,1709870384,6,0,0,0,0,0,0,0,0,0,0,0,0,Attribute not found,Attribute not found,Attribute not found,0,0,0,1709870384,7,0,0,0,0,0,0,0,0,0,0,0,0,Attribute not found,Attribute not found,Attribute not found,0,0,0,1709870384,8,0,0,0,0,0,0,0,0,0,0,0,0,Attribute not found,Attribute not found,Attribute not found,0,0,0,1709870384
1,30724,30428,30512,30104,31024,39,-198,16845,-149,0,216,1709870385,0,11570,11583,11695,11833,12001,12223,12365,12445,30179,1619,679,464,16071,6273,-3821,0,0,0,1709870385,1,18654,18628,18641,18578,18491,18429,18432,18517,17298,471,81,70,13990,-6150,5948,0,0,0,1709870385,2,17119,17220,17265,17341,17333,17338,17239,17132,6915,454,99,42,9393,-5548,-13875,0,0,0,1709870385,,,,,,,,,,,,,,,,,,,,,,0,0,0,0,0,0,0,0,0,0,0,0,Attribute not found,Attribute not found,Attribute not found,0,0,0,1709870385,5,0,0,0,0,0,0,0,0,0,0,0,0,Attribute not found,Attribute not found,Attribute not found,0,0,0,1709870385,6,0,0,0,0,0,0,0,0,0,0,0,0,Attribute not found,Attribute not found,Attribute not found,0,0,0,1709870385,7,0,0,0,0,0,0,0,0,0,0,0,0,Attribute not found,Attribute not found,Attribute not found,0,0,0,1709870385,8,0,0,0,0,0,0,0,0,0,0,0,0,Attribute not found,Attribute not found,Attribute not found,0,0,0,1709870385
1,31548,30520,30568,30064,31052,39,-198,16845,-149,0,216,1709870385,0,12092,12174,12205,12177,12150,12176,12256,12302,31995,143,254,150,14816,3850,-3435,0,0,0,1709870385,1,18160,18188,18186,18085,18095,18111,18146,18154,14053,174,97,51,14936,-6380,4716,0,0,0,1709870385,2,17858,17985,17992,17897,17649,17685,17742,17779,11515,641,227,92,7893,-4471,-13459,0,0,0,1709870385,,,,,,,,,,,,,,,,,,,,,,0,0,0,0,0,0,0,0,0,0,0,0,Attribute not found,Attribute not found,Attribute not found,0,0,0,1709870385,5,0,0,0,0,0,0,0,0,0,0,0,0,Attribute not found,Attribute not found,Attribute not found,0,0,0,1709870385,6,0,0,0,0,0,0,0,0,0,0,0,0,Attribute not found,Attribute not found,Attribute not found,0,0,0,1709870385,7,0,0,0,0,0,0,0,0,0,0,0,0,Attribute not found,Attribute not found,Attribute not found,0,0,0,1709870385,8,0,0,0,0,0,0,0,0,0,0,0,0,Attribute not found,Attribute not found,Attribute not found,0,0,0,1709870385
1,31588,27800,30624,30048,31056,39,-198,16845,-149,0,216,1709870385,0,12859,12373,12407,12580,12666,12547,12314,12333,34543,178,804,492,16468,4032,-3373,0,0,0,1709870385,1,17676,17702,17778,17945,17790,17411,16988,16859,9077,1888,765,484,14198,-6489,4898,0,0,0,1709870385,2,18511,18347,18421,18451,18529,18585,18789,19117,17678,1046,658,419,8461,-5000,-14224,0,0,0,1709870385,,,,,,,,,,,,,,,,,,,,,,0,0,0,0,0,0,0,0,0,0,0,0,Attribute not found,Attribute not found,Attribute not found,0,0,0,1709870385,5,0,0,0,0,0,0,0,0,0,0,0,0,Attribute not found,Attribute not found,Attribute not found,0,0,0,1709870385,6,0,0,0,0,0,0,0,0,0,0,0,0,Attribute not found,Attribute not found,Attribute not found,0,0,0,1709870385,7,0,0,0,0,0,0,0,0,0,0,0,0,Attribute not found,Attribute not found,Attribute not found,0,0,0,1709870385,8,0,0,0,0,0,0,0,0,0,0,0,0,Attribute not found,Attribute not found,Attribute not found,0,0,0,1709870385
1,31688,28000,30748,30100,31064,39,-198,16845,-149,0,216,1709870385,0,11916,11674,11701,11905,12139,12528,12811,12697,31835,2289,607,187,15765,3657,-2923,0,0,0,1709870385,1,17917,17677,17365,17087,17021,17102,17182,17255,7534,1497,586,385,15074,-6394,4896,0,0,0,1709870385,2,18781,18461,18182,18042,18040,18108,18175,18354,15071,1211,495,271,7871,-4397,-13591,0,0,0,1709870385,,,,,,,,,,,,,,,,,,,,,,0,0,0,0,0,0,0,0,0,0,0,0,Attribute not found,Attribute not found,Attribute not found,0,0,0,1709870385,5,0,0,0,0,0,0,0,0,0,0,0,0,Attribute not found,Attribute not found,Attribute not found,0,0,0,1709870385,6,0,0,0,0,0,0,0,0,0,0,0,0,Attribute not found,Attribute not found,Attribute not found,0,0,0,1709870385,7,0,0,0,0,0,0,0,0,0,0,0,0,Attribute not found,Attribute not found,Attribute not found,0,0,0,1709870385,8,0,0,0,0,0,0,0,0,0,0,0,0,Attribute not found,Attribute not found,Attribute not found,0,0,0,1709870385
1,31568,28524,30652,30044,31064,39,-198,16845,-149,0,216,1709870385,0,12219,12292,12268,12142,12090,12067,12034,12109,31684,493,108,52,16208,2679,-3666,0,0,0,1709870385,1,18207,18240,18291,18331,18394,18463,18494,18455,15803,516,201,124,14998,-6153,4521,0,0,0,1709870385,2,17685,17721,17700,17756,17883,17988,17983,17876,11520,633,138,94,7777,-4482,-13464,0,0,0,1709870385,,,,,,,,,,,,,,,,,,,,,,0,0,0,0,0,0,0,0,0,0,0,0,Attribute not found,Attribute not found,Attribute not found,0,0,0,1709870385,5,0,0,0,0,0,0,0,0,0,0,0,0,Attribute not found,Attribute not found,Attribute not found,0,0,0,1709870385,6,0,0,0,0,0,0,0,0,0,0,0,0,Attribute not found,Attribute not found,Attribute not found,0,0,0,1709870385,7,0,0,0,0,0,0,0,0,0,0,0,0,Attribute not found,Attribute not found,Attribute not found,0,0,0,1709870385,8,0,0,0,0,0,0,0,0,0,0,0,0,Attribute not found,Attribute not found,Attribute not found,0,0,0,1709870385
1,31568,28524,30652,30044,31064,39,-198,16845,-149,0,216,1709870385,0,12156,12187,12168,12228,12310,12308,12216,12120,32157,321,168,39,14933,3521,-2843,0,0,0,1709870385,1,18593,18531,18522,18550,18535,18540,18611,18698,17508,253,177,45,15550,-6600,3908,0,0,0,1709870385,2,17552,17621,17689,17692,17582,17496,17498,17497,9555,424,89,40,7749,-4447,-13632,0,0,0,1709870385,,,,,,,,,,,,,,,,,,,,,,0,0,0,0,0,0,0,0,0,0,0,0,Attribute not found,Attribute not found,Attribute not found,0,0,0,1709870385,5,0,0,0,0,0,0,0,0,0,0,0,0,Attribute not found,Attribute not found,Attribute not found,0,0,0,1709870385,6,0,0,0,0,0,0,0,0,0,0,0,0,Attribute not found,Attribute not found,Attribute not found,0,0,0,1709870385,7,0,0,0,0,0,0,0,0,0,0,0,0,Attribute not found,Attribute not found,Attribute not found,0,0,0,1709870385,8,0,0,0,0,0,0,0,0,0,0,0,0,Attribute not found,Attribute not found,Attribute not found,0,0,0,1709870385
1,31468,30612,30504,30036,30984,39,-198,16845,-149,0,216,1709870385,0,12345,12295,12176,12128,12156,12182,12219,12246,32211,355,147,47,15455,3489,-2988,0,0,0,1709870385,1,18205,18250,18282,18207,18059,17998,18006,18029,13964,613,26,97,14749,-6135,4178,0,0,0,1709870385,2,17827,17822,17847,17882,17921,18004,18084,18125,12440,539,257,151,7921,-4124,-13425,0,0,0,1709870385,,,,,,,,,,,,,,,,,,,,,,0,0,0,0,0,0,0,0,0,0,0,0,Attribute not found,Attribute not found,Attribute not found,0,0,0,1709870385,5,0,0,0,0,0,0,0,0,0,0,0,0,Attribute not found,Attribute not found,Attribute not found,0,0,0,1709870385,6,0,0,0,0,0,0,0,0,0,0,0,0,Attribute not found,Attribute not found,Attribute not found,0,0,0,1709870385,7,0,0,0,0,0,0,0,0,0,0,0,0,Attribute not found,Attribute not found,Attribute not found,0,0,0,1709870385,8,0,0,0,0,0,0,0,0,0,0,0,0,Attribute not found,Attribute not found,Attribute not found,0,0,0,1709870385
1,31452,30592,30392,30064,31016,39,-198,16845,-149,0,216,1709870386,0,12136,12186,12148,12158,12197,12275,12338,12359,32260,395,162,141,16242,3233,-2984,0,0,0,1709870386,1,17450,17481,17492,17475,17497,17530,17577,17602,9032,209,138,109,15199,-6254,3986,0,0,0,1709870386,2,18380,18406,18422,18461,18549,18579,18593,18581,16899,430,103,136,7850,-4302,-13714,0,0,0,1709870386,,,,,,,,,,,,,,,,,,,,,,0,0,0,0,0,0,0,0,0,0,0,0,Attribute not found,Attribute not found,Attribute not found,0,0,0,1709870386,5,0,0,0,0,0,0,0,0,0,0,0,0,Attribute not found,Attribute not found,Attribute not found,0,0,0,1709870386,6,0,0,0,0,0,0,0,0,0,0,0,0,Attribute not found,Attribute not found,Attribute not found,0,0,0,1709870386,7,0,0,0,0,0,0,0,0,0,0,0,0,Attribute not found,Attribute not found,Attribute not found,0,0,0,1709870386,8,0,0,0,0,0,0,0,0,0,0,0,0,Attribute not found,Attribute not found,Attribute not found,0,0,0,1709870386
1,31524,30676,28512,30140,30996,39,-198,16845,-149,0,216,1709870386,0,12195,12302,12395,12427,12335,12207,12113,12162,32599,596,82,33,15672,3147,-2617,0,0,0,1709870386,1,17577,17687,17827,17877,17811,17684,17659,17619,10669,544,158,56,15244,-6395,3900,0,0,0,1709870386,2,18247,18314,18430,18543,18609,18591,18480,18353,16495,701,54,33,7618,-4283,-14267,0,0,0,1709870386,,,,,,,,,,,,,,,,,,,,,,0,0,0,0,0,0,0,0,0,0,0,0,Attribute not found,Attribute not found,Attribute not found,0,0,0,1709870386,5,0,0,0,0,0,0,0,0,0,0,0,0,Attribute not found,Attribute not found,Attribute not found,0,0,0,1709870386,6,0,0,0,0,0,0,0,0,0,0,0,0,Attribute not found,Attribute not found,Attribute not found,0,0,0,1709870386,7,0,0,0,0,0,0,0,0,0,0,0,0,Attribute not found,Attribute not found,Attribute not found,0,0,0,1709870386,8,0,0,0,0,0,0,0,0,0,0,0,0,Attribute not found,Attribute not found,Attribute not found,0,0,0,1709870386
1,31524,30668,27188,30228,30992,39,-198,16845,-149,0,216,1709870386,0,12002,12036,12138,12285,12311,12275,12181,12122,31814,601,96,26,15405,3927,-3515,0,0,0,1709870386,1,18166,18168,18216,18313,18352,18326,18254,18227,14950,369,66,18,13892,-5995,5370,0,0,0,1709870386,2,17780,17716,17720,17701,17672,17651,17689,17749,10606,192,93,33,7845,-4365,-13564,0,0,0,1709870386,,,,,,,,,,,,,,,,,,,,,,0,0,0,0,0,0,0,0,0,0,0,0,Attribute not found,Attribute not found,Attribute not found,0,0,0,1709870386,5,0,0,0,0,0,0,0,0,0,0,0,0,Attribute not found,Attribute not found,Attribute not found,0,0,0,1709870386,6,0,0,0,0,0,0,0,0,0,0,0,0,Attribute not found,Attribute not found,Attribute not found,0,0,0,1709870386,7,0,0,0,0,0,0,0,0,0,0,0,0,Attribute not found,Attribute not found,Attribute not found,0,0,0,1709870386,8,0,0,0,0,0,0,0,0,0,0,0,0,Attribute not found,Attribute not found,Attribute not found,0,0,0,1709870386
1,31460,30604,30136,30032,30964,39,-198,16845,-149,0,216,1709870386,0,12297,12286,12178,12055,12077,12098,12091,12093,31639,426,258,63,14172,4087,-3798,0,0,0,1709870386,1,18504,18461,18353,18260,18207,18206,18230,18275,15424,568,183,115,13682,-6092,5405,0,0,0,1709870386,2,17502,17543,17490,17406,17285,17243,17268,17297,7962,620,87,105,8565,-4037,-12651,0,0,0,1709870386,,,,,,,,,,,,,,,,,,,,,,0,0,0,0,0,0,0,0,0,0,0,0,Attribute not found,Attribute not found,Attribute not found,0,0,0,1709870386,5,0,0,0,0,0,0,0,0,0,0,0,0,Attribute not found,Attribute not found,Attribute not found,0,0,0,1709870386,6,0,0,0,0,0,0,0,0,0,0,0,0,Attribute not found,Attribute not found,Attribute not found,0,0,0,1709870386,7,0,0,0,0,0,0,0,0,0,0,0,0,Attribute not found,Attribute not found,Attribute not found,0,0,0,1709870386,8,0,0,0,0,0,0,0,0,0,0,0,0,Attribute not found,Attribute not found,Attribute not found,0,0,0,1709870386
1,31440,30608,30596,30032,30980,39,-198,16845,-149,0,216,1709870386,0,12162,12157,12164,12156,12220,12311,12334,12312,32280,393,116,77,15158,3548,-3219,0,0,0,1709870386,1,17460,17479,17474,17492,17583,17666,17724,17688,9494,533,158,131,15085,-6331,4646,0,0,0,1709870386,2,17719,17792,17831,17853,17913,17976,18029,17968,12009,475,234,145,7471,-4007,-13317,0,0,0,1709870386,,,,,,,,,,,,,,,,,,,,,,0,0,0,0,0,0,0,0,0,0,0,0,Attribute not found,Attribute not found,Attribute not found,0,0,0,1709870386,5,0,0,0,0,0,0,0,0,0,0,0,0,Attribute not found,Attribute not found,Attribute not found,0,0,0,1709870386,6,0,0,0,0,0,0,0,0,0,0,0,0,Attribute not found,Attribute not found,Attribute not found,0,0,0,1709870386,7,0,0,0,0,0,0,0,0,0,0,0,0,Attribute not found,Attribute not found,Attribute not found,0,0,0,1709870386,8,0,0,0,0,0,0,0,0,0,0,0,0,Attribute not found,Attribute not found,Attribute not found,0,0,0,1709870386
1,31504,30576,30576,29640,30992,39,-198,16845,-149,0,216,1709870386,0,12173,12198,12206,12215,12226,12310,12390,12437,32619,420,244,140,16308,3618,-2523,0,0,0,1709870386,1,17549,17543,17573,17599,17603,17685,17778,17854,10112,486,300,153,14921,-6267,4171,0,0,0,1709870386,2,18693,18778,18810,18703,18584,18552,18510,18490,18048,621,143,100,7352,-4240,-14043,0,0,0,1709870386,,,,,,,,,,,,,,,,,,,,,,0,0,0,0,0,0,0,0,0,0,0,0,Attribute not found,Attribute not found,Attribute not found,0,0,0,1709870386,5,0,0,0,0,0,0,0,0,0,0,0,0,Attribute not found,Attribute not found,Attribute not found,0,0,0,1709870386,6,0,0,0,0,0,0,0,0,0,0,0,0,Attribute not found,Attribute not found,Attribute not found,0,0,0,1709870386,7,0,0,0,0,0,0,0,0,0,0,0,0,Attribute not found,Attribute not found,Attribute not found,0,0,0,1709870386,8,0,0,0,0,0,0,0,0,0,0,0,0,Attribute not found,Attribute not found,Attribute not found,0,0,0,1709870386
1,31456,30504,30684,27312,31012,39,-198,16845,-149,0,216,1709870386,0,12247,12314,12396,12417,12367,12124,12152,12180,32661,567,172,104,15684,3568,-3277,0,0,0,1709870386,1,18396,18403,18463,18492,18377,18253,18230,18338,15880,448,191,28,14901,-6577,4665,0,0,0,1709870386,2,18359,18293,18161,18090,18094,18177,18225,18207,14534,434,185,118,7627,-4486,-13936,0,0,0,1709870386,,,,,,,,,,,,,,,,,,,,,,0,0,0,0,0,0,0,0,0,0,0,0,Attribute not found,Attribute not found,Attribute not found,0,0,0,1709870386,5,0,0,0,0,0,0,0,0,0,0,0,0,Attribute not found,Attribute not found,Attribute not found,0,0,0,1709870386,6,0,0,0,0,0,0,0,0,0,0,0,0,Attribute not found,Attribute not found,Attribute not found,0,0,0,1709870386,7,0,0,0,0,0,0,0,0,0,0,0,0,Attribute not found,Attribute not found,Attribute not found,0,0,0,1709870386,8,0,0,0,0,0,0,0,0,0,0,0,0,Attribute not found,Attribute not found,Attribute not found,0,0,0,1709870386
1,31536,30532,30712,25960,30928,39,-198,16845,-149,0,216,1709870386,0,12196,12102,12014,12020,12035,12058,12050,12128,31067,280,167,54,15201,3465,-3449,0,0,0,1709870386,1,18251,18337,18344,18326,18300,18269,18219,18191,15165,285,89,18,15268,-6357,4717,0,0,0,1709870386,2,17310,17286,17261,17279,17347,17409,17468,17446,7734,412,78,68,7742,-4362,-13496,0,0,0,1709870386,,,,,,,,,,,,,,,,,,,,,,0,0,0,0,0,0,0,0,0,0,0,0,Attribute not found,Attribute not found,Attribute not found,0,0,0,1709870386,5,0,0,0,0,0,0,0,0,0,0,0,0,Attribute not found,Attribute not found,Attribute not found,0,0,0,1709870386,6,0,0,0,0,0,0,0,0,0,0,0,0,Attribute not found,Attribute not found,Attribute not found,0,0,0,1709870386,7,0,0,0,0,0,0,0,0,0,0,0,0,Attribute not found,Attribute not found,Attribute not found,0,0,0,1709870386,8,0,0,0,0,0,0,0,0,0,0,0,0,Attribute not found,Attribute not found,Attribute not found,0,0,0,1709870386
1,31496,30556,30536,29080,31016,39,-198,16845,-149,0,216,1709870387,0,12337,12348,12219,12037,12063,12052,12078,12087,31684,606,294,44,14860,3165,-3604,0,0,0,1709870387,1,17763,17746,17634,17530,17469,17465,17477,17474,9486,601,239,157,14694,-6061,4838,0,0,0,1709870387,2,17496,17531,17545,17651,17742,17701,17627,17466,9687,502,132,92,7547,-4356,-13530,0,0,0,1709870387,,,,,,,,,,,,,,,,,,,,,,0,0,0,0,0,0,0,0,0,0,0,0,Attribute not found,Attribute not found,Attribute not found,0,0,0,1709870387,5,0,0,0,0,0,0,0,0,0,0,0,0,Attribute not found,Attribute not found,Attribute not found,0,0,0,1709870387,6,0,0,0,0,0,0,0,0,0,0,0,0,Attribute not found,Attribute not found,Attribute not found,0,0,0,1709870387,7,0,0,0,0,0,0,0,0,0,0,0,0,Attribute not found,Attribute not found,Attribute not found,0,0,0,1709870387,8,0,0,0,0,0,0,0,0,0,0,0,0,Attribute not found,Attribute not found,Attribute not found,0,0,0,1709870387
1,31500,30480,30548,30052,31000,39,-198,16845,-149,0,216,1709870387,0,12229,12209,12205,12306,12375,12398,12352,12250,32787,400,69,59,15136,2962,-3010,0,0,0,1709870387,1,17709,17717,17731,17810,17856,17856,17819,17740,11166,324,27,39,15412,-6225,4158,0,0,0,1709870387,2,18459,18354,18262,18275,18285,18291,18294,18369,15517,290,188,63,7730,-3978,-13666,0,0,0,1709870387,,,,,,,,,,,,,,,,,,,,,,0,0,0,0,0,0,0,0,0,0,0,0,Attribute not found,Attribute not found,Attribute not found,0,0,0,1709870387,5,0,0,0,0,0,0,0,0,0,0,0,0,Attribute not found,Attribute not found,Attribute not found,0,0,0,1709870387,6,0,0,0,0,0,0,0,0,0,0,0,0,Attribute not found,Attribute not found,Attribute not found,0,0,0,1709870387,7,0,0,0,0,0,0,0,0,0,0,0,0,Attribute not found,Attribute not found,Attribute not found,0,0,0,1709870387,8,0,0,0,0,0,0,0,0,0,0,0,0,Attribute not found,Attribute not found,Attribute not found,0,0,0,1709870387
1,31444,30548,30504,30052,30916,39,-198,16845,-149,0,216,1709870387,0,12169,12208,12218,12222,12320,12402,12425,12390,32818,492,154,141,15813,3576,-3544,0,0,0,1709870387,1,18281,18222,18178,18232,18285,18304,18331,18457,15218,382,172,123,14435,-6140,4624,0,0,0,1709870387,2,18472,18397,18411,18423,18427,18412,18526,18615,16611,311,232,86,7448,-3994,-13463,0,0,0,1709870387,,,,,,,,,,,,,,,,,,,,,,0,0,0,0,0,0,0,0,0,0,0,0,Attribute not found,Attribute not found,Attribute not found,0,0,0,1709870387,5,0,0,0,0,0,0,0,0,0,0,0,0,Attribute not found,Attribute not found,Attribute not found,0,0,0,1709870387,6,0,0,0,0,0,0,0,0,0,0,0,0,Attribute not found,Attribute not found,Attribute not found,0,0,0,1709870387,7,0,0,0,0,0,0,0,0,0,0,0,0,Attribute not found,Attribute not found,Attribute not found,0,0,0,1709870387,8,0,0,0,0,0,0,0,0,0,0,0,0,Attribute not found,Attribute not found,Attribute not found,0,0,0,1709870387
1,31496,30544,30516,29944,30724,39,-198,16845,-149,0,216,1709870387,0,12293,12178,12085,12075,12094,12121,12133,12180,31623,324,174,85,15862,3358,-3144,0,0,0,1709870387,1,18205,18292,18372,18345,18234,18163,18143,18124,14806,485,77,40,14393,-6012,4642,0,0,0,1709870387,2,17645,17692,17783,17814,17853,17750,17592,17522,10579,578,162,47,7409,-4340,-13955,0,0,0,1709870387,,,,,,,,,,,,,,,,,,,,,,0,0,0,0,0,0,0,0,0,0,0,0,Attribute not found,Attribute not found,Attribute not found,0,0,0,1709870387,5,0,0,0,0,0,0,0,0,0,0,0,0,Attribute not found,Attribute not found,Attribute not found,0,0,0,1709870387,6,0,0,0,0,0,0,0,0,0,0,0,0,Attribute not found,Attribute not found,Attribute not found,0,0,0,1709870387,7,0,0,0,0,0,0,0,0,0,0,0,0,Attribute not found,Attribute not found,Attribute not found,0,0,0,1709870387,8,0,0,0,0,0,0,0,0,0,0,0,0,Attribute not found,Attribute not found,Attribute not found,0,0,0,1709870387
1,31512,30580,30544,29784,30304,39,-198,16845,-149,0,216,1709870387,0,12117,12159,12193,12135,12154,12223,12299,12324,32068,289,234,145,15883,3462,-2668,0,0,0,1709870387,1,17502,17500,17528,17613,17698,17689,17628,17528,9614,426,65,26,15242,-6543,4356,0,0,0,1709870387,2,17412,17497,17502,17396,17311,17303,17311,17330,7990,420,116,12,7629,-4399,-13907,0,0,0,1709870387,,,,,,,,,,,,,,,,,,,,,,0,0,0,0,0,0,0,0,0,0,0,0,Attribute not found,Attribute not found,Attribute not found,0,0,0,1709870387,5,0,0,0,0,0,0,0,0,0,0,0,0,Attribute not found,Attribute not found,Attribute not found,0,0,0,1709870387,6,0,0,0,0,0,0,0,0,0,0,0,0,Attribute not found,Attribute not found,Attribute not found,0,0,0,1709870387,7,0,0,0,0,0,0,0,0,0,0,0,0,Attribute not found,Attribute not found,Attribute not found,0,0,0,1709870387,8,0,0,0,0,0,0,0,0,0,0,0,0,Attribute not found,Attribute not found,Attribute not found,0,0,0,1709870387
1,31524,30588,30480,29936,30860,39,-198,16845,-149,0,216,1709870387,0,12250,12218,12245,12265,12270,12309,12377,12452,32850,332,215,109,15720,3823,-2921,0,0,0,1709870387,1,17845,17765,17681,17652,17683,17746,17810,17887,10997,442,46,29,14929,-6680,4598,0,0,0,1709870387,2,18070,18110,18116,18137,18211,18270,18251,18083,14176,359,181,60,7739,-4538,-13857,0,0,0,1709870387,,,,,,,,,,,,,,,,,,,,,,0,0,0,0,0,0,0,0,0,0,0,0,Attribute not found,Attribute not found,Attribute not found,0,0,0,1709870387,5,0,0,0,0,0,0,0,0,0,0,0,0,Attribute not found,Attribute not found,Attribute not found,0,0,0,1709870387,6,0,0,0,0,0,0,0,0,0,0,0,0,Attribute not found,Attribute not found,Attribute not found,0,0,0,1709870387,7,0,0,0,0,0,0,0,0,0,0,0,0,Attribute not found,Attribute not found,Attribute not found,0,0,0,1709870387,8,0,0,0,0,0,0,0,0,0,0,0,0,Attribute not found,Attribute not found,Attribute not found,0,0,0,1709870387
1,31412,30528,30476,29788,30968,39,-198,16845,-149,0,216,1709870387,0,12340,12229,12190,12168,12173,12178,12228,12270,32240,284,99,58,15589,3546,-3027,0,0,0,1709870387,1,18344,18346,18377,18453,18525,18584,18557,18428,16542,493,81,29,15057,-6470,4377,0,0,0,1709870387,2,18588,18586,18623,18622,18630,18687,18744,18762,18170,291,185,85,7756,-4259,-13911,0,0,0,1709870387,,,,,,,,,,,,,,,,,,,,,,0,0,0,0,0,0,0,0,0,0,0,0,Attribute not found,Attribute not found,Attribute not found,0,0,0,1709870387,5,0,0,0,0,0,0,0,0,0,0,0,0,Attribute not found,Attribute not found,Attribute not found,0,0,0,1709870387,6,0,0,0,0,0,0,0,0,0,0,0,0,Attribute not found,Attribute not found,Attribute not found,0,0,0,1709870387,7,0,0,0,0,0,0,0,0,0,0,0,0,Attribute not found,Attribute not found,Attribute not found,0,0,0,1709870387,8,0,0,0,0,0,0,0,0,0,0,0,0,Attribute not found,Attribute not found,Attribute not found,0,0,0,1709870387
1,31468,30564,30524,29540,30972,39,-198,16845,-149,0,216,1709870388,0,12082,12114,12133,12215,12321,12369,12319,12223,32240,556,66,64,15614,3457,-3243,0,0,0,1709870388,1,18166,18076,17923,17774,17700,17709,17792,17862,11930,853,212,158,14489,-6201,4564,0,0,0,1709870388,2,18147,18176,18221,18180,18125,17990,17924,17942,13633,596,134,58,7483,-4123,-13671,0,0,0,1709870388,,,,,,,,,,,,,,,,,,,,,,0,0,0,0,0,0,0,0,0,0,0,0,Attribute not found,Attribute not found,Attribute not found,0,0,0,1709870388,5,0,0,0,0,0,0,0,0,0,0,0,0,Attribute not found,Attribute not found,Attribute not found,0,0,0,1709870388,6,0,0,0,0,0,0,0,0,0,0,0,0,Attribute not found,Attribute not found,Attribute not found,0,0,0,1709870388,7,0,0,0,0,0,0,0,0,0,0,0,0,Attribute not found,Attribute not found,Attribute not found,0,0,0,1709870388,8,0,0,0,0,0,0,0,0,0,0,0,0,Attribute not found,Attribute not found,Attribute not found,0,0,0,1709870388
1,31568,30572,30716,25412,31036,39,-198,16845,-149,0,216,1709870388,0,12282,12336,12335,12274,12134,12130,12138,12159,32252,474,65,88,15203,3709,-3509,0,0,0,1709870388,1,17327,17366,17397,17436,17480,17619,17832,17862,9247,915,525,279,14895,-6295,4459,0,0,0,1709870388,2,17660,17597,17553,17511,17554,17582,17562,17537,9484,136,164,77,7877,-4364,-13614,0,0,0,1709870388,,,,,,,,,,,,,,,,,,,,,,0,0,0,0,0,0,0,0,0,0,0,0,Attribute not found,Attribute not found,Attribute not found,0,0,0,1709870388,5,0,0,0,0,0,0,0,0,0,0,0,0,Attribute not found,Attribute not found,Attribute not found,0,0,0,1709870388,6,0,0,0,0,0,0,0,0,0,0,0,0,Attribute not found,Attribute not found,Attribute not found,0,0,0,1709870388,7,0,0,0,0,0,0,0,0,0,0,0,0,Attribute not found,Attribute not found,Attribute not found,0,0,0,1709870388,8,0,0,0,0,0,0,0,0,0,0,0,0,Attribute not found,Attribute not found,Attribute not found,0,0,0,1709870388
1,31468,30592,30668,26764,30884,39,-198,16845,-149,0,216,1709870388,0,12190,12239,12303,12406,12395,12310,12211,12186,32704,455,83,13,15451,3899,-2759,0,0,0,1709870388,1,17808,17683,17697,17698,17729,17752,17822,17905,11022,365,168,72,14668,-6419,4681,0,0,0,1709870388,2,17682,17697,17699,17749,17847,17928,17989,17940,11459,619,171,136,7515,-4489,-13583,0,0,0,1709870388,,,,,,,,,,,,,,,,,,,,,,0,0,0,0,0,0,0,0,0,0,0,0,Attribute not found,Attribute not found,Attribute not found,0,0,0,1709870388,5,0,0,0,0,0,0,0,0,0,0,0,0,Attribute not found,Attribute not found,Attribute not found,0,0,0,1709870388,6,0,0,0,0,0,0,0,0,0,0,0,0,Attribute not found,Attribute not found,Attribute not found,0,0,0,1709870388,7,0,0,0,0,0,0,0,0,0,0,0,0,Attribute not found,Attribute not found,Attribute not found,0,0,0,1709870388,8,0,0,0,0,0,0,0,0,0,0,0,0,Attribute not found,Attribute not found,Attribute not found,0,0,0,1709870388
1,31512,30668,30724,26688,30948,39,-198,16845,-149,0,216,1709870388,0,12199,12221,12280,12342,12406,12386,12268,12142,32708,466,135,52,15198,3385,-2854,0,0,0,1709870388,1,18689,18602,18538,18515,18492,18457,18445,18473,17139,351,210,130,15347,-6317,4417,0,0,0,1709870388,2,18240,18311,18327,18268,18201,18207,18240,18227,14949,207,128,16,7704,-4369,-13651,0,0,0,1709870388,,,,,,,,,,,,,,,,,,,,,,0,0,0,0,0,0,0,0,0,0,0,0,Attribute not found,Attribute not found,Attribute not found,0,0,0,1709870388,5,0,0,0,0,0,0,0,0,0,0,0,0,Attribute not found,Attribute not found,Attribute not found,0,0,0,1709870388,6,0,0,0,0,0,0,0,0,0,0,0,0,Attribute not found,Attribute not found,Attribute not found,0,0,0,1709870388,7,0,0,0,0,0,0,0,0,0,0,0,0,Attribute not found,Attribute not found,Attribute not found,0,0,0,1709870388,8,0,0,0,0,0,0,0,0,0,0,0,0,Attribute not found,Attribute not found,Attribute not found,0,0,0,1709870388
1,31448,30596,30544,29316,30948,39,-198,16845,-149,0,216,1709870388,0,12088,12110,12122,12142,12156,12213,12271,12284,31850,324,181,98,15694,3647,-2786,0,0,0,1709870388,1,18102,18134,18142,18191,18333,18452,18466,18347,15095,744,179,116,14910,-6420,4126,0,0,0,1709870388,2,18301,18403,18474,18500,18404,18318,18278,18271,15877,465,68,26,7222,-4438,-14014,0,0,0,1709870388,,,,,,,,,,,,,,,,,,,,,,0,0,0,0,0,0,0,0,0,0,0,0,Attribute not found,Attribute not found,Attribute not found,0,0,0,1709870388,5,0,0,0,0,0,0,0,0,0,0,0,0,Attribute not found,Attribute not found,Attribute not found,0,0,0,1709870388,6,0,0,0,0,0,0,0,0,0,0,0,0,Attribute not found,Attribute not found,Attribute not found,0,0,0,1709870388,7,0,0,0,0,0,0,0,0,0,0,0,0,Attribute not found,Attribute not found,Attribute not found,0,0,0,1709870388,8,0,0,0,0,0,0,0,0,0,0,0,0,Attribute not found,Attribute not found,Attribute not found,0,0,0,1709870388
1,31504,30512,30516,30020,31000,39,-198,16845,-149,0,216,1709870388,0,11993,12000,12095,12193,12220,12178,12085,12040,31268,461,64,28,15513,3821,-3580,0,0,0,1709870388,1,17510,17572,17626,17590,17443,17330,17339,17382,8720,612,71,53,14722,-6238,4595,0,0,0,1709870388,2,17979,17853,17772,17771,17779,17770,17769,17829,11450,300,218,101,7748,-4275,-13394,0,0,0,1709870388,,,,,,,,,,,,,,,,,,,,,,0,0,0,0,0,0,0,0,0,0,0,0,Attribute not found,Attribute not found,Attribute not found,0,0,0,1709870388,5,0,0,0,0,0,0,0,0,0,0,0,0,Attribute not found,Attribute not found,Attribute not found,0,0,0,1709870388,6,0,0,0,0,0,0,0,0,0,0,0,0,Attribute not found,Attribute not found,Attribute not found,0,0,0,1709870388,7,0,0,0,0,0,0,0,0,0,0,0,0,Attribute not found,Attribute not found,Attribute not found,0,0,0,1709870388,8,0,0,0,0,0,0,0,0,0,0,0,0,Attribute not found,Attribute not found,Attribute not found,0,0,0,1709870388
1,31512,30552,30264,30008,31028,39,-198,16845,-149,0,216,1709870388,0,12184,12297,12370,12414,12385,12285,12151,12131,32681,580,60,14,16142,3395,-3336,0,0,0,1709870388,1,17765,17709,17647,17640,17680,17687,17693,17756,10505,214,105,24,14834,-5971,4461,0,0,0,1709870388,2,17610,17649,17648,17645,17697,17755,17777,17702,10411,272,131,54,7613,-4303,-13510,0,0,0,1709870388,,,,,,,,,,,,,,,,,,,,,,0,0,0,0,0,0,0,0,0,0,0,0,Attribute not found,Attribute not found,Attribute not found,0,0,0,1709870388,5,0,0,0,0,0,0,0,0,0,0,0,0,Attribute not found,Attribute not found,Attribute not found,0,0,0,1709870388,6,0,0,0,0,0,0,0,0,0,0,0,0,Attribute not found,Attribute not found,Attribute not found,0,0,0,1709870388,7,0,0,0,0,0,0,0,0,0,0,0,0,Attribute not found,Attribute not found,Attribute not found,0,0,0,1709870388,8,0,0,0,0,0,0,0,0,0,0,0,0,Attribute not found,Attribute not found,Attribute not found,0,0,0,1709870388
1,31520,30580,29060,30124,31044,39,-198,16845,-149,0,216,1709870388,0,12217,12229,12246,12260,12295,12421,12493,12493,33118,549,249,119,15660,3150,-2937,0,0,0,1709870389,1,18429,18472,18443,18330,18283,18241,18223,18277,15626,500,115,27,15168,-6343,4405,0,0,0,1709870389,2,18210,18284,18314,18223,18111,18038,18014,17996,14118,644,103,92,7475,-4271,-13604,0,0,0,1709870389,,,,,,,,,,,,,,,,,,,,,,0,0,0,0,0,0,0,0,0,0,0,0,Attribute not found,Attribute not found,Attribute not found,0,0,0,1709870389,5,0,0,0,0,0,0,0,0,0,0,0,0,Attribute not found,Attribute not found,Attribute not found,0,0,0,1709870389,6,0,0,0,0,0,0,0,0,0,0,0,0,Attribute not found,Attribute not found,Attribute not found,0,0,0,1709870389,7,0,0,0,0,0,0,0,0,0,0,0,0,Attribute not found,Attribute not found,Attribute not found,0,0,0,1709870389,8,0,0,0,0,0,0,0,0,0,0,0,0,Attribute not found,Attribute not found,Attribute not found,0,0,0,1709870389
1,31624,30836,27436,30264,31044,39,-198,16845,-149,0,216,1709870389,0,12215,12216,12161,12145,12223,12293,12299,12246,32262,264,120,27,15443,3098,-2593,0,0,0,1709870389,1,18316,18349,18328,18204,18158,18178,18215,18181,14857,362,157,58,15303,-6564,4258,0,0,0,1709870389,2,18352,18272,18270,18319,18309,18250,18247,18375,15322,98,224,48,7443,-4399,-14134,0,0,0,1709870389,,,,,,,,,,,,,,,,,,,,,,0,0,0,0,0,0,0,0,0,0,0,0,Attribute not found,Attribute not found,Attribute not found,0,0,0,1709870389,5,0,0,0,0,0,0,0,0,0,0,0,0,Attribute not found,Attribute not found,Attribute not found,0,0,0,1709870389,6,0,0,0,0,0,0,0,0,0,0,0,0,Attribute not found,Attribute not found,Attribute not found,0,0,0,1709870389,7,0,0,0,0,0,0,0,0,0,0,0,0,Attribute not found,Attribute not found,Attribute not found,0,0,0,1709870389,8,0,0,0,0,0,0,0,0,0,0,0,0,Attribute not found,Attribute not found,Attribute not found,0,0,0,1709870389
1,31564,30724,29572,30276,31024,39,-198,16845,-149,0,216,1709870389,0,12101,12169,12204,12160,11894,11906,11944,11991,30832,628,170,147,15104,3966,-3534,0,0,0,1709870389,1,17444,17386,17347,17344,17375,17415,17484,17530,8253,340,73,44,14603,-6658,5054,0,0,0,1709870389,2,18204,18129,18024,18012,18053,18073,18107,18154,13684,324,131,24,7805,-4736,-13464,0,0,0,1709870389,,,,,,,,,,,,,,,,,,,,,,0,0,0,0,0,0,0,0,0,0,0,0,Attribute not found,Attribute not found,Attribute not found,0,0,0,1709870389,5,0,0,0,0,0,0,0,0,0,0,0,0,Attribute not found,Attribute not found,Attribute not found,0,0,0,1709870389,6,0,0,0,0,0,0,0,0,0,0,0,0,Attribute not found,Attribute not found,Attribute not found,0,0,0,1709870389,7,0,0,0,0,0,0,0,0,0,0,0,0,Attribute not found,Attribute not found,Attribute not found,0,0,0,1709870389,8,0,0,0,0,0,0,0,0,0,0,0,0,Attribute not found,Attribute not found,Attribute not found,0,0,0,1709870389
1,31508,30668,27036,30224,30976,39,-198,16845,-149,0,216,1709870389,0,12138,12044,12025,12059,12096,12102,12139,12234,31301,305,162,65,16058,3707,-2636,0,0,0,1709870389,1,17447,17547,17627,17663,17624,17547,17425,17390,9198,541,45,18,14826,-6559,4412,0,0,0,1709870389,2,17795,17767,17641,17498,17417,17383,17419,17442,9290,810,259,171,7608,-4314,-13724,0,0,0,1709870389,,,,,,,,,,,,,,,,,,,,,,0,0,0,0,0,0,0,0,0,0,0,0,Attribute not found,Attribute not found,Attribute not found,0,0,0,1709870389,5,0,0,0,0,0,0,0,0,0,0,0,0,Attribute not found,Attribute not found,Attribute not found,0,0,0,1709870389,6,0,0,0,0,0,0,0,0,0,0,0,0,Attribute not found,Attribute not found,Attribute not found,0,0,0,1709870389,7,0,0,0,0,0,0,0,0,0,0,0,0,Attribute not found,Attribute not found,Attribute not found,0,0,0,1709870389,8,0,0,0,0,0,0,0,0,0,0,0,0,Attribute not found,Attribute not found,Attribute not found,0,0,0,1709870389
1,31492,30584,30108,30080,31000,39,-198,16845,-149,0,216,1709870389,0,12381,12359,12237,12176,12161,12194,12207,12208,32386,380,195,103,15774,3416,-3134,0,0,0,1709870389,1,18205,18214,18198,18267,18374,18440,18415,18319,15360,506,76,50,15056,-6296,4447,0,0,0,1709870389,2,17520,17525,17547,17599,17693,17734,17783,17751,10080,535,148,134,7869,-4297,-13639,0,0,0,1709870389,,,,,,,,,,,,,,,,,,,,,,0,0,0,0,0,0,0,0,0,0,0,0,Attribute not found,Attribute not found,Attribute not found,0,0,0,1709870389,5,0,0,0,0,0,0,0,0,0,0,0,0,Attribute not found,Attribute not found,Attribute not found,0,0,0,1709870389,6,0,0,0,0,0,0,0,0,0,0,0,0,Attribute not found,Attribute not found,Attribute not found,0,0,0,1709870389,7,0,0,0,0,0,0,0,0,0,0,0,0,Attribute not found,Attribute not found,Attribute not found,0,0,0,1709870389,8,0,0,0,0,0,0,0,0,0,0,0,0,Attribute not found,Attribute not found,Attribute not found,0,0,0,1709870389
1,31532,30508,30508,30064,31020,39,-198,16845,-149,0,216,1709870389,0,12666,12694,12638,12516,12278,12254,12208,12172,33889,1084,277,343,15879,3553,-3020,0,0,0,1709870389,1,18705,18808,18852,18787,18631,18599,18558,18573,18441,597,87,77,14544,-6157,4625,0,0,0,1709870389,2,18219,18211,18064,17964,17959,17952,17978,18042,13317,542,207,47,7557,-4272,-13508,0,0,0,1709870389,,,,,,,,,,,,,,,,,,,,,,0,0,0,0,0,0,0,0,0,0,0,0,Attribute not found,Attribute not found,Attribute not found,0,0,0,1709870389,5,0,0,0,0,0,0,0,0,0,0,0,0,Attribute not found,Attribute not found,Attribute not found,0,0,0,1709870389,6,0,0,0,0,0,0,0,0,0,0,0,0,Attribute not found,Attribute not found,Attribute not found,0,0,0,1709870389,7,0,0,0,0,0,0,0,0,0,0,0,0,Attribute not found,Attribute not found,Attribute not found,0,0,0,1709870389,8,0,0,0,0,0,0,0,0,0,0,0,0,Attribute not found,Attribute not found,Attribute not found,0,0,0,1709870389
1,31532,30480,30540,30072,31048,39,-198,16845,-149,0,216,1709870389,0,12093,12123,12290,12554,12659,12730,12732,12717,34361,1321,497,272,15637,3426,-2885,0,0,0,1709870389,1,18242,18324,18334,18270,18088,17984,17893,17823,13886,1000,238,257,15045,-6376,4646,0,0,0,1709870389,2,18418,18525,18670,18822,18792,18680,18495,18318,17648,939,79,116,8162,-4350,-13455,0,0,0,1709870389,,,,,,,,,,,,,,,,,,,,,,0,0,0,0,0,0,0,0,0,0,0,0,Attribute not found,Attribute not found,Attribute not found,0,0,0,1709870389,5,0,0,0,0,0,0,0,0,0,0,0,0,Attribute not found,Attribute not found,Attribute not found,0,0,0,1709870389,6,0,0,0,0,0,0,0,0,0,0,0,0,Attribute not found,Attribute not found,Attribute not found,0,0,0,1709870389,7,0,0,0,0,0,0,0,0,0,0,0,0,Attribute not found,Attribute not found,Attribute not found,0,0,0,1709870389,8,0,0,0,0,0,0,0,0,0,0,0,0,Attribute not found,Attribute not found,Attribute not found,0,0,0,1709870389
1,31576,28192,30688,30012,31080,39,-198,16845,-149,0,216,1709870389,0,11545,11420,11459,11519,11775,12082,12366,12586,29216,2130,786,605,15759,3590,-3632,0,0,0,1709870389,1,17144,17267,17441,17498,17535,17548,17607,17542,8510,684,432,232,14745,-6299,4801,0,0,0,1709870389,2,18037,18142,18244,18150,18224,18221,18087,18261,14294,165,84,358,7514,-4375,-13763,0,0,0,1709870389,,,,,,,,,,,,,,,,,,,,,,0,0,0,0,0,0,0,0,0,0,0,0,Attribute not found,Attribute not found,Attribute not found,0,0,0,1709870389,5,0,0,0,0,0,0,0,0,0,0,0,0,Attribute not found,Attribute not found,Attribute not found,0,0,0,1709870389,6,0,0,0,0,0,0,0,0,0,0,0,0,Attribute not found,Attribute not found,Attribute not found,0,0,0,1709870389,7,0,0,0,0,0,0,0,0,0,0,0,0,Attribute not found,Attribute not found,Attribute not found,0,0,0,1709870389,8,0,0,0,0,0,0,0,0,0,0,0,0,Attribute not found,Attribute not found,Attribute not found,0,0,0,1709870389
1,31656,26572,30740,30084,31128,39,-198,16845,-149,0,216,1709870390,0,11686,11994,11943,11710,11414,11318,11499,11525,27553,1221,350,181,15405,3694,-3638,0,0,0,1709870390,1,17610,17753,17881,17880,17825,17870,18084,18218,12049,528,711,389,15073,-6552,4886,0,0,0,1709870390,2,17894,17942,17931,17839,17716,17678,17679,17839,11446,570,58,65,8131,-4422,-13885,0,0,0,1709870390,,,,,,,,,,,,,,,,,,,,,,0,0,0,0,0,0,0,0,0,0,0,0,Attribute not found,Attribute not found,Attribute not found,0,0,0,1709870390,5,0,0,0,0,0,0,0,0,0,0,0,0,Attribute not found,Attribute not found,Attribute not found,0,0,0,1709870390,6,0,0,0,0,0,0,0,0,0,0,0,0,Attribute not found,Attribute not found,Attribute not found,0,0,0,1709870390,7,0,0,0,0,0,0,0,0,0,0,0,0,Attribute not found,Attribute not found,Attribute not found,0,0,0,1709870390,8,0,0,0,0,0,0,0,0,0,0,0,0,Attribute not found,Attribute not found,Attribute not found,0,0,0,1709870390
1,31664,28256,30708,30052,31068,39,-198,16845,-149,0,216,1709870390,0,12426,12470,12467,12451,12378,12046,11958,11985,32645,1138,387,143,15410,3676,-3457,0,0,0,1709870390,1,18648,18623,18562,18418,18448,18441,18449,18466,16983,417,199,41,14587,-6437,4808,0,0,0,1709870390,2,17630,17624,17475,17528,17610,17666,17721,17699,9881,411,76,119,7804,-4435,-13817,0,0,0,1709870390,,,,,,,,,,,,,,,,,,,,,,0,0,0,0,0,0,0,0,0,0,0,0,Attribute not found,Attribute not found,Attribute not found,0,0,0,1709870390,5,0,0,0,0,0,0,0,0,0,0,0,0,Attribute not found,Attribute not found,Attribute not found,0,0,0,1709870390,6,0,0,0,0,0,0,0,0,0,0,0,0,Attribute not found,Attribute not found,Attribute not found,0,0,0,1709870390,7,0,0,0,0,0,0,0,0,0,0,0,0,Attribute not found,Attribute not found,Attribute not found,0,0,0,1709870390,8,0,0,0,0,0,0,0,0,0,0,0,0,Attribute not found,Attribute not found,Attribute not found,0,0,0,1709870390
1,31616,28108,30656,30068,31036,39,-198,16845,-149,0,216,1709870390,0,12633,12476,12155,11961,11931,11948,12074,12093,31734,1223,499,308,15112,3164,-2027,0,0,0,1709870390,1,17845,17975,17983,17872,17900,18037,18056,17919,12515,163,367,44,15188,-6523,4019,0,0,0,1709870390,2,18070,18095,18105,18144,18239,18386,18539,18601,15107,964,426,301,7142,-4147,-13815,0,0,0,1709870390,,,,,,,,,,,,,,,,,,,,,,0,0,0,0,0,0,0,0,0,0,0,0,Attribute not found,Attribute not found,Attribute not found,0,0,0,1709870390,5,0,0,0,0,0,0,0,0,0,0,0,0,Attribute not found,Attribute not found,Attribute not found,0,0,0,1709870390,6,0,0,0,0,0,0,0,0,0,0,0,0,Attribute not found,Attribute not found,Attribute not found,0,0,0,1709870390,7,0,0,0,0,0,0,0,0,0,0,0,0,Attribute not found,Attribute not found,Attribute not found,0,0,0,1709870390,8,0,0,0,0,0,0,0,0,0,0,0,0,Attribute not found,Attribute not found,Attribute not found,0,0,0,1709870390
1,31400,30276,30536,30016,31008,39,-198,16845,-149,0,216,1709870390,0,12042,12050,12067,12122,12167,12242,12277,12353,31784,518,227,176,15519,3502,-3187,0,0,0,1709870390,1,17420,17493,17556,17455,17324,17257,17231,17239,7903,653,70,82,14992,-6308,4603,0,0,0,1709870390,2,18552,18494,18506,18534,18533,18534,18634,18704,17419,297,217,75,7835,-4306,-13811,0,0,0,1709870390,,,,,,,,,,,,,,,,,,,,,,0,0,0,0,0,0,0,0,0,0,0,0,Attribute not found,Attribute not found,Attribute not found,0,0,0,1709870390,5,0,0,0,0,0,0,0,0,0,0,0,0,Attribute not found,Attribute not found,Attribute not found,0,0,0,1709870390,6,0,0,0,0,0,0,0,0,0,0,0,0,Attribute not found,Attribute not found,Attribute not found,0,0,0,1709870390,7,0,0,0,0,0,0,0,0,0,0,0,0,Attribute not found,Attribute not found,Attribute not found,0,0,0,1709870390,8,0,0,0,0,0,0,0,0,0,0,0,0,Attribute not found,Attribute not found,Attribute not found,0,0,0,1709870390
1,31420,30552,30508,30032,31004,39,-198,16845,-149,0,216,1709870390,0,12148,12223,12290,12317,12305,12208,12104,12090,32149,470,63,16,15905,3502,-3449,0,0,0,1709870390,1,17794,17855,17946,17997,18049,17983,17881,17831,12264,471,18,60,14592,-6174,4547,0,0,0,1709870390,2,18108,18166,18242,18270,18288,18209,18085,18046,14342,466,90,30,7525,-4167,-13521,0,0,0,1709870390,,,,,,,,,,,,,,,,,,,,,,0,0,0,0,0,0,0,0,0,0,0,0,Attribute not found,Attribute not found,Attribute not found,0,0,0,1709870390,5,0,0,0,0,0,0,0,0,0,0,0,0,Attribute not found,Attribute not found,Attribute not found,0,0,0,1709870390,6,0,0,0,0,0,0,0,0,0,0,0,0,Attribute not found,Attribute not found,Attribute not found,0,0,0,1709870390,7,0,0,0,0,0,0,0,0,0,0,0,0,Attribute not found,Attribute not found,Attribute not found,0,0,0,1709870390,8,0,0,0,0,0,0,0,0,0,0,0,0,Attribute not found,Attribute not found,Attribute not found,0,0,0,1709870390
