uLabel,h1,h2,h3,h4,h5,ax,ay,az,uL dev_yaw,uL dev_pitch,uL dev_roll,uL Timestamp,uMyo1,uM1 d1,uM1 d2,uM1 d3,uM1 d4,uM1 d5,uM1 d6,uM1 d7,uM1 d8,uM1 ds1,uM1 ds2,uM1 ds3,uM1 ds4,uM1 ax,uM1 ay,uM1 az,uM1 dev_yaw,uM1 dev_pitch,uM1 dev_roll,uM1 Timestamp,uMyo2,uM2 d1,uM2 d2,uM2 d3,uM2 d4,uM2 d5,uM2 d6,uM2 d7,uM2 d8,uM2 ds1,uM2 ds2,uM2 ds3,uM2 ds4,uM2 ax,uM2 ay,uM2 az,uM2 dev_yaw,uM2 dev_pitch,uM2 dev_roll,uM2 Timestamp,uMyo3,uM3 d1,uM3 d2,uM3 d3,uM3 d4,uM3 d5,uM3 d6,uM3 d7,uM3 d8,uM3 ds1,uM3 ds2,uM3 ds3,uM3 ds4,uM3 ax,uM3 ay,uM3 az,uM3 dev_yaw,uM3 dev_pitch,uM3 dev_roll,uM3 Timestamp,uMyo4,uM4 d1,uM4 d2,uM4 d3,uM4 d4,uM4 d5,uM4 d6,uM4 d7,uM4 d8,uM4 ds1,uM4 ds2,uM4 ds3,uM4 ds4,uM4 ax,uM4 ay,uM4 az,uM4 dev_yaw,uM4 dev_pitch,uM4 dev_roll,uM4 Timestamp
1,31516,30548,30540,30064,30936,-119,-252,16772,-1,0,0,0.012618541717529297,0,12254,12254,12312,12252,12290,12276,12290,12297,32689,32,61,86,1497,-16644,1056,0,0,0,0.012618541717529297
1,31504,30532,30480,30116,31068,-119,-252,16772,-1,0,0,0.026192903518676758,0,12233,12280,12294,12264,12252,12247,12254,12285,32573,52,66,65,1497,-16644,1056,0,0,0,0.026192903518676758
1,31520,30536,30544,30024,30948,-119,-252,16772,-1,0,0,0.04415321350097656,0,12293,12295,12288,12230,12328,12293,12253,12256,32699,23,129,75,1497,-16644,1056,0,0,0,0.04415321350097656
1,31500,30556,30520,30056,31004,-119,-252,16772,-1,0,0,0.057982683181762695,0,12290,12287,12247,12236,12269,12271,12274,12264,32602,63,69,21,1497,-16644,1056,0,0,0,0.057982683181762695
1,31460,30560,30464,30100,31004,-119,-252,16772,-1,0,0,0.07644796371459961,0,12266,12270,12235,12287,12256,12283,12290,12271,32622,53,5,64,1497,-16644,1056,0,0,0,0.07644796371459961
1,31508,30500,30500,30080,30976,-119,-252,16772,-1,0,0,0.10402417182922363,0,12227,12278,12276,12271,12271,12258,12261,12258,32563,54,39,49,1497,-16644,1056,0,0,0,0.10402417182922363
1,31508,30540,30460,30056,30932,-119,-252,16772,-1,0,0,0.14279437065124512,0,12277,12289,12226,12204,12292,12273,12254,12251,32530,58,139,59,1497,-16644,1056,0,0,0,0.14279437065124512
1,31516,30500,30500,30080,30968,-119,-252,16772,-1,0,0,0.1803903579711914,0,12266,12224,12224,12291,12277,12271,12284,12265,32566,97,70,60,1497,-16644,1056,0,0,0,0.1803903579711914
1,31492,30524,30456,30064,31004,-119,-252,16772,-1,0,0,0.22232651710510254,0,12270,12262,12202,12197,12231,12241,12243,12254,32364,115,76,22,1497,-16644,1056,0,0,0,0.22232651710510254
1,31540,30544,30528,30100,31000,-119,-252,16772,-1,0,0,0.26285409927368164,0,12303,12230,12261,12265,12253,12263,12252,12263,32554,28,55,80,1497,-16644,1056,0,0,0,0.26285409927368164
1,31520,30520,30452,30068,30972,-119,-252,16772,-1,0,0,0.3021245002746582,0,12246,12253,12269,12247,12245,12237,12234,12229,32423,59,18,11,1497,-16644,1056,0,0,0,0.3021245002746582
1,31584,30580,30444,30116,30992,-119,-252,16772,-1,0,0,0.3387119770050049,0,12268,12266,12231,12221,12240,12236,12222,12224,32372,58,79,11,1497,-16644,1056,0,0,0,0.3387119770050049
1,31496,30552,30492,30036,31016,-119,-252,16772,-1,0,0,0.37982606887817383,0,12193,12240,12236,12210,12215,12215,12225,12233,32231,17,54,56,1497,-16644,1056,0,0,0,0.37982606887817383
1,31448,30504,30508,30032,30992,-119,-252,16772,-1,0,0,0.41839027404785156,0,12325,12247,12232,12258,12249,12259,12249,12240,32523,56,93,99,1497,-16644,1056,0,0,0,0.41839027404785156
1,31444,30520,30500,30040,30948,-119,-252,16772,-1,0,0,0.45696020126342773,0,12275,12253,12229,12232,12218,12242,12255,12259,32427,91,9,33,1497,-16644,1056,0,0,0,0.45696020126342773
1,31500,30476,30528,30056,31012,-119,-252,16772,-1,0,0,0.494753360748291,0,12247,12260,12254,12246,12253,12233,12235,12227,32419,51,22,17,1497,-16644,1056,0,0,0,0.494753360748291
1,31500,30556,30488,30056,30956,-119,-252,16772,-1,0,0,0.5344066619873047,0,12203,12254,12213,12255,12245,12243,12265,12259,32401,56,34,77,1497,-16644,1056,0,0,0,0.5344066619873047
1,31532,30516,30512,30024,31048,-119,-252,16772,-1,0,0,0.5727763175964355,0,12325,12266,12217,12231,12229,12237,12263,12262,32493,146,74,69,1497,-16644,1056,0,0,0,0.5727763175964355
1,31416,30544,30472,30088,30960,-119,-252,16772,-1,0,0,0.6108729839324951,0,12209,12228,12224,12227,12255,12262,12251,12236,32356,85,29,28,1497,-16644,1056,0,0,0,0.6108729839324951
1,31460,30520,30500,30028,30988,-119,-252,16772,-1,0,0,0.651679515838623,0,12214,12202,12193,12193,12222,12227,12247,12220,32181,91,16,19,1497,-16644,1056,0,0,0,0.651679515838623
1,31508,30500,30488,30044,30964,-119,-252,16772,-1,0,0,0.7003450393676758,0,12280,12255,12255,12202,12234,12232,12220,12233,32374,89,65,41,1497,-16644,1056,0,0,0,0.7003450393676758
1,31540,30504,30532,30064,30984,-119,-252,16772,-1,0,0,0.744103193283081,0,12205,12248,12222,12244,12250,12217,12195,12203,32248,93,42,44,1497,-16644,1056,0,0,0,0.744103193283081
1,31472,30556,30476,30108,30996,-119,-252,16772,-1,0,0,0.7911701202392578,0,12190,12206,12215,12192,12192,12224,12231,12205,32119,38,72,6,1497,-16644,1056,0,0,0,0.7911701202392578
1,31508,30520,30512,30068,30988,-119,-252,16772,-1,0,0,0.8376433849334717,0,12208,12214,12210,12246,12248,12214,12222,12204,32230,71,32,42,1497,-16644,1056,0,0,0,0.8376433849334717
1,31520,30564,30568,30108,31016,-119,-252,16772,-1,0,0,0.8778471946716309,0,12238,12244,12243,12226,12187,12204,12205,12207,32218,103,27,36,1497,-16644,1056,0,0,0,0.8778471946716309
1,31516,30524,30424,30068,30960,-119,-252,16772,-1,0,0,0.923635721206665,0,12227,12232,12228,12207,12235,12223,12228,12168,32212,44,80,36,1497,-16644,1056,0,0,0,0.923635721206665
1,31500,30476,30528,30072,30984,-119,-252,16772,-1,0,0,0.9618930816650391,0,12172,12242,12250,12235,12199,12220,12208,12205,32195,85,89,21,1497,-16644,1056,0,0,0,0.9618930816650391
1,31464,30500,30428,30040,31008,-119,-252,16772,-1,0,0,1.000948429107666,0,12281,12229,12217,12195,12217,12231,12244,12228,32306,100,52,42,1497,-16644,1056,0,0,0,1.000948429107666
1,31492,30508,30468,30068,31000,-119,-252,16772,-1,0,0,1.0389049053192139,0,12152,12225,12174,12167,12216,12198,12219,12229,32044,69,36,128,1497,-16644,1056,0,0,0,1.0389049053192139
1,31524,30568,30544,30080,30996,-119,-252,16772,-1,0,0,1.0774660110473633,0,12196,12220,12189,12230,12249,12245,12230,12198,32221,100,45,47,1497,-16644,1056,0,0,0,1.0774660110473633
1,31508,30544,30432,30052,31016,-119,-252,16772,-1,0,0,1.1176466941833496,0,12202,12200,12185,12230,12217,12216,12233,12229,32176,64,43,37,1497,-16644,1056,0,0,0,1.1176466941833496
1,31456,30500,30420,30052,30956,-119,-252,16772,-1,0,0,1.1577067375183105,0,12220,12224,12221,12214,12205,12207,12190,12178,32123,68,41,29,1497,-16644,1056,0,0,0,1.1577067375183105
1,31504,30564,30564,30080,30972,-119,-252,16772,-1,0,0,1.2034330368041992,0,12176,12213,12232,12215,12241,12248,12238,12216,32243,94,60,45,1497,-16644,1056,0,0,0,1.2034330368041992
1,31504,30572,30520,30072,30968,-119,-252,16772,-1,0,0,1.2519090175628662,0,12222,12230,12245,12256,12253,12248,12222,12186,32325,110,36,34,1497,-16644,1056,0,0,0,1.2519090175628662
1,31512,30552,30572,30064,30988,-119,-252,16772,-1,0,0,1.3002278804779053,0,12210,12219,12188,12171,12212,12209,12215,12213,32100,60,47,39,1497,-16644,1056,0,0,0,1.3002278804779053
1,31592,30508,30532,30112,31040,-119,-252,16772,-1,0,0,1.3773937225341797,0,12223,12195,12208,12189,12221,12213,12218,12189,32120,25,34,14,1497,-16644,1056,0,0,0,1.3773937225341797
1,31492,30568,30504,30100,31036,-119,-252,16772,-1,0,0,1.4546754360198975,0,12223,12238,12244,12229,12243,12235,12246,12217,32339,27,36,18,1497,-16644,1056,0,0,0,1.4546754360198975
1,31500,30532,30436,30080,30956,-119,-252,16772,-1,0,0,1.523909091949463,0,12227,12220,12219,12246,12244,12231,12202,12202,32255,68,50,22,1497,-16644,1056,0,0,0,1.523909091949463
1,31464,30516,30452,30064,30952,-119,-252,16772,-1,0,0,1.6003546714782715,0,12233,12219,12219,12212,12221,12208,12203,12187,32166,41,42,23,1497,-16644,1056,0,0,0,1.6003546714782715
1,31452,30564,30440,30052,31024,-119,-252,16772,-1,0,0,1.6714699268341064,0,12234,12233,12216,12192,12200,12226,12216,12149,32130,36,118,69,1497,-16644,1056,0,0,0,1.6714699268341064
1,31520,30488,30572,30088,30960,-119,-252,16772,-1,0,0,1.7349717617034912,0,12210,12207,12227,12229,12221,12203,12188,12218,32167,52,40,29,1497,-16644,1056,0,0,0,1.7349717617034912
1,31520,30504,30468,30076,30976,-119,-252,16772,-1,0,0,1.7912511825561523,0,12139,12210,12159,12175,12214,12224,12237,12230,32052,134,51,108,1497,-16644,1056,0,0,0,1.7912511825561523
1,31436,30476,30440,30080,31024,-119,-252,16772,-1,0,0,1.84555983543396,0,12228,12226,12219,12215,12237,12238,12251,12252,32330,67,5,26,1497,-16644,1056,0,0,0,1.84555983543396
1,31516,30536,30520,30088,30988,-119,-252,16772,-1,0,0,1.896101951599121,0,12198,12213,12201,12195,12220,12210,12227,12237,32165,54,13,53,1497,-16644,1056,0,0,0,1.896101951599121
1,31408,30428,30504,30048,30948,-119,-252,16772,-1,0,0,1.947202444076538,0,12193,12223,12226,12237,12211,12224,12223,12229,32230,25,48,11,1497,-16644,1056,0,0,0,1.947202444076538
1,31512,30500,30464,30052,30996,-119,-252,16772,-1,0,0,1.9917378425598145,0,12116,12224,12227,12207,12203,12194,12183,12214,32032,85,91,116,1497,-16644,1056,0,0,0,1.9917378425598145
1,31408,30472,30480,30004,30884,-119,-252,16772,-1,0,0,2.030365228652954,0,12238,12251,12205,12192,12201,12198,12198,12188,32134,85,77,33,1497,-16644,1056,0,0,0,2.030365228652954
1,31468,30540,30484,30096,31020,-119,-252,16772,-1,0,0,2.0683178901672363,0,12157,12214,12208,12202,12245,12207,12189,12202,32088,86,17,94,1497,-16644,1056,0,0,0,2.0683178901672363
1,31540,30608,30504,30112,31012,-119,-252,16772,-1,0,0,2.104671001434326,0,12199,12204,12150,12166,12225,12209,12249,12231,32097,149,29,84,1497,-16644,1056,0,0,0,2.104671001434326
1,31556,30524,30520,30076,30980,-119,-252,16772,-1,0,0,2.143160104751587,0,12208,12201,12199,12195,12206,12209,12195,12177,32054,19,42,20,1497,-16644,1056,0,0,0,2.143160104751587
1,31540,30592,30464,30108,30988,-119,-252,16772,-1,0,0,2.1750600337982178,0,12175,12197,12201,12206,12185,12143,12186,12141,31898,100,27,69,1497,-16644,1056,0,0,0,2.1750600337982178
1,31476,30520,30512,30064,30928,-119,-252,16772,-1,0,0,2.2153232097625732,0,12171,12205,12183,12183,12217,12217,12200,12207,32047,56,32,55,1497,-16644,1056,0,0,0,2.2153232097625732
1,31468,30440,30468,30096,30964,-119,-252,16772,-1,0,0,2.2532668113708496,0,12227,12237,12231,12221,12227,12223,12205,12197,32232,53,45,7,1497,-16644,1056,0,0,0,2.2532668113708496
1,31508,30616,30480,30032,31000,-119,-252,16772,-1,0,0,2.289677858352661,0,12145,12231,12175,12182,12221,12197,12208,12231,32054,46,22,136,1497,-16644,1056,0,0,0,2.289677858352661
1,31512,30540,30472,30080,30904,-119,-252,16772,-1,0,0,2.3227176666259766,0,12265,12214,12218,12237,12228,12249,12242,12253,32370,64,42,51,1497,-16644,1056,0,0,0,2.3227176666259766
1,31440,30532,30488,30072,31088,-119,-252,16772,-1,0,0,2.3596243858337402,0,12186,12221,12195,12180,12213,12218,12229,12226,32132,64,41,61,1497,-16644,1056,0,0,0,2.3596243858337402
1,31496,30516,30500,30072,30932,-119,-252,16772,-1,0,0,2.396164894104004,0,12107,12202,12202,12225,12232,12192,12196,12232,32052,113,86,137,1497,-16644,1056,0,0,0,2.396164894104004
1,31484,30516,30512,30020,30896,-119,-252,16772,-1,0,0,2.4415342807769775,0,12245,12235,12239,12232,12235,12243,12236,12182,32310,45,64,57,1497,-16644,1056,0,0,0,2.4415342807769775
1,31444,30612,30472,30104,30916,-119,-252,16772,-1,0,0,2.480616807937622,0,12250,12245,12251,12247,12240,12229,12220,12177,32322,96,53,56,1497,-16644,1056,0,0,0,2.480616807937622
1,31448,30488,30428,30040,30960,-119,-252,16772,-1,0,0,2.5110907554626465,0,12223,12215,12202,12215,12227,12232,12235,12245,32258,66,18,13,1497,-16644,1056,0,0,0,2.5110907554626465
1,31508,30536,30496,30096,31036,-119,-252,16772,-1,0,0,2.5451347827911377,0,12208,12216,12181,12226,12225,12232,12241,12240,32233,83,21,41,1497,-16644,1056,0,0,0,2.5451347827911377
1,31548,30532,30496,30088,30984,-119,-252,16772,-1,0,0,2.5816948413848877,0,12231,12230,12251,12230,12192,12193,12188,12206,32185,116,20,35,1497,-16644,1056,0,0,0,2.5816948413848877
1,31512,30576,30476,30052,30972,-119,-252,16772,-1,0,0,2.6174378395080566,0,12188,12216,12224,12218,12221,12194,12175,12146,32045,134,47,17,1497,-16644,1056,0,0,0,2.6174378395080566
1,31492,30564,30488,30060,30940,-119,-252,16772,-1,0,0,2.649256467819214,0,12183,12211,12215,12207,12226,12232,12227,12194,32159,69,53,19,1497,-16644,1056,0,0,0,2.649256467819214
1,31516,30584,30468,30080,30968,-119,-252,16772,-1,0,0,2.684705972671509,0,12215,12236,12179,12205,12220,12226,12237,12215,32197,58,46,61,1497,-16644,1056,0,0,0,2.684705972671509
1,31512,30528,30480,30080,31012,-119,-252,16772,-1,0,0,2.7215962409973145,0,12247,12241,12170,12165,12197,12205,12222,12223,32133,134,77,39,1497,-16644,1056,0,0,0,2.7215962409973145
1,31544,30568,30528,30092,31016,-119,-252,16772,-1,0,0,2.7617197036743164,0,12152,12213,12223,12289,12205,12209,12155,12174,32084,201,46,30,1497,-16644,1056,0,0,0,2.7617197036743164
1,31520,30596,30488,30092,30972,-119,-252,16772,-1,0,0,2.804309606552124,0,12112,12187,12231,12250,12187,12189,12182,12178,31979,160,125,22,1497,-16644,1056,0,0,0,2.804309606552124
1,31512,30536,30488,30120,30972,-119,-252,16772,-1,0,0,2.8586714267730713,0,12213,12226,12232,12240,12210,12208,12203,12227,32223,51,35,7,1497,-16644,1056,0,0,0,2.8586714267730713
1,31508,30628,30472,30056,30936,-119,-252,16772,-1,0,0,2.909508466720581,0,12155,12207,12196,12205,12223,12210,12181,12199,32040,76,13,62,1497,-16644,1056,0,0,0,2.909508466720581
1,31436,30536,30412,30076,30932,-119,-252,16772,-1,0,0,2.956981658935547,0,12223,12217,12224,12244,12206,12189,12208,12192,32167,72,30,52,1497,-16644,1056,0,0,0,2.956981658935547
1,31468,30500,30480,30092,30944,-119,-252,16772,-1,0,0,3.001539945602417,0,12073,12096,12136,12169,12181,12187,12207,12239,31752,221,153,102,1497,-16644,1056,0,0,0,3.001539945602417
1,31532,30504,30476,30040,30984,-119,-252,16772,-1,0,0,3.0405447483062744,0,12220,12214,12256,12254,12234,12235,12248,12258,32382,27,80,25,1497,-16644,1056,0,0,0,3.0405447483062744
1,31472,30468,30512,30044,30972,-119,-252,16772,-1,0,0,3.078461170196533,0,12261,12263,12232,12244,12223,12222,12236,12241,32385,70,16,36,1497,-16644,1056,0,0,0,3.078461170196533
1,31500,30528,30520,30080,30952,-119,-252,16772,-1,0,0,3.118013620376587,0,12240,12227,12248,12223,12215,12236,12239,12200,32292,19,51,47,1497,-16644,1056,0,0,0,3.118013620376587
1,31440,30492,30492,30048,30920,-119,-252,16772,-1,0,0,3.1582140922546387,0,12232,12231,12266,12222,12195,12193,12195,12219,32217,117,38,43,1497,-16644,1056,0,0,0,3.1582140922546387
1,31464,30464,30512,30052,30956,-119,-252,16772,-1,0,0,3.193960428237915,0,12227,12216,12226,12240,12237,12225,12201,12191,32226,73,38,31,1497,-16644,1056,0,0,0,3.193960428237915
1,31452,30512,30420,30080,30920,-119,-252,16772,-1,0,0,3.230992317199707,0,12279,12237,12237,12235,12270,12256,12215,12200,32393,44,113,48,1497,-16644,1056,0,0,0,3.230992317199707
1,31456,30564,30512,30004,30912,-119,-252,16772,-1,0,0,3.261751413345337,0,12191,12190,12249,12265,12215,12206,12232,12229,32241,68,123,13,1497,-16644,1056,0,0,0,3.261751413345337
1,31492,30504,30400,30020,30916,-119,-252,16772,-1,0,0,3.2991018295288086,0,12233,12233,12289,12288,12209,12233,12217,12222,32388,120,77,75,1497,-16644,1056,0,0,0,3.2991018295288086
1,31416,30492,30416,30044,30956,-119,-252,16772,-1,0,0,3.3381197452545166,0,12209,12206,12230,12224,12214,12201,12192,12200,32139,61,17,19,1497,-16644,1056,0,0,0,3.3381197452545166
1,31488,30548,30444,30064,31008,-119,-252,16772,-1,0,0,3.3755884170532227,0,12179,12191,12189,12197,12206,12207,12196,12227,32056,43,26,44,1497,-16644,1056,0,0,0,3.3755884170532227
1,31484,30540,30448,30068,30992,-119,-252,16772,-1,0,0,3.414163589477539,0,12218,12219,12223,12193,12176,12182,12195,12207,32077,89,24,13,1497,-16644,1056,0,0,0,3.414163589477539
1,31556,30528,30464,30028,30912,-119,-252,16772,-1,0,0,3.451758861541748,0,12188,12209,12191,12189,12217,12228,12204,12201,32090,48,48,25,1497,-16644,1056,0,0,0,3.451758861541748
1,31524,30540,30444,30060,30956,-119,-252,16772,-1,0,0,3.491776943206787,0,12254,12215,12186,12204,12213,12203,12221,12242,32202,93,66,17,1497,-16644,1056,0,0,0,3.491776943206787
1,31480,30492,30432,30008,30960,-119,-252,16772,-1,0,0,3.5294365882873535,0,12238,12257,12262,12268,12249,12220,12206,12223,32386,115,23,5,1497,-16644,1056,0,0,0,3.5294365882873535
1,31476,30524,30476,30124,30908,-119,-252,16772,-1,0,0,3.5694611072540283,0,12189,12237,12237,12238,12231,12237,12248,12239,32320,42,65,43,1497,-16644,1056,0,0,0,3.5694611072540283
1,31464,30504,30552,30048,30960,-119,-252,16772,-1,0,0,3.608825206756592,0,12230,12229,12271,12261,12236,12224,12200,12209,32323,118,17,41,1497,-16644,1056,0,0,0,3.608825206756592
1,31492,30584,30504,30068,30952,-119,-252,16772,-1,0,0,3.6487960815429688,0,12199,12202,12250,12216,12228,12236,12254,12237,32285,57,78,40,1497,-16644,1056,0,0,0,3.6487960815429688
1,31488,30548,30484,30012,30940,-119,-252,16772,-1,0,0,3.686849355697632,0,12155,12181,12264,12221,12220,12210,12230,12211,32156,94,125,60,1497,-16644,1056,0,0,0,3.686849355697632
1,31520,30568,30460,30088,31048,-119,-252,16772,-1,0,0,3.7252678871154785,0,12220,12225,12246,12273,12258,12236,12231,12222,32374,92,34,14,1497,-16644,1056,0,0,0,3.7252678871154785
1,31500,30500,30468,30068,31000,-119,-252,16772,-1,0,0,3.76442813873291,0,12222,12231,12215,12200,12211,12217,12227,12217,32204,35,32,14,1497,-16644,1056,0,0,0,3.76442813873291
1,31520,30532,30496,30064,30936,-119,-252,16772,-1,0,0,3.80869197845459,0,12240,12241,12262,12241,12229,12216,12222,12230,32345,68,20,14,1497,-16644,1056,0,0,0,3.80869197845459
1,31452,30544,30604,30044,30972,-119,-252,16772,-1,0,0,3.8456063270568848,0,12207,12193,12119,12156,12210,12228,12192,12187,31956,119,131,26,1497,-16644,1056,0,0,0,3.8456063270568848
1,31460,30544,30476,30108,31020,-119,-252,16772,-1,0,0,3.8845906257629395,0,12189,12167,12225,12205,12202,12210,12197,12208,32067,41,47,62,1497,-16644,1056,0,0,0,3.8845906257629395
1,31476,30628,30448,30048,31052,-119,-252,16772,-1,0,0,3.9223310947418213,0,12154,12185,12252,12243,12198,12210,12224,12195,32125,105,131,13,1497,-16644,1056,0,0,0,3.9223310947418213
1,31460,30528,30480,30060,30956,-119,-252,16772,-1,0,0,3.954364776611328,0,12231,12198,12199,12178,12195,12168,12174,12181,31987,73,53,13,1497,-16644,1056,0,0,0,3.954364776611328
1,31456,30544,30464,30020,30992,-119,-252,16772,-1,0,0,3.9916512966156006,0,12231,12240,12257,12262,12232,12223,12200,12216,32325,103,16,23,1497,-16644,1056,0,0,0,3.9916512966156006
1,31588,30548,30532,30012,30976,-119,-252,16772,-1,0,0,4.034888505935669,0,12219,12225,12228,12258,12237,12243,12235,12247,32356,40,37,3,1497,-16644,1056,0,0,0,4.034888505935669
1,31500,30484,30488,30032,31012,-119,-252,16772,-1,0,0,4.078264474868774,0,12239,12231,12243,12209,12208,12224,12223,12230,32270,51,24,31,1497,-16644,1056,0,0,0,4.078264474868774
1,31488,30552,30460,30064,30936,-119,-252,16772,-1,0,0,4.115495681762695,0,12247,12236,12231,12247,12249,12242,12233,12214,32363,34,36,33,1497,-16644,1056,0,0,0,4.115495681762695
1,31464,30500,30504,30016,30968,-119,-252,16772,-1,0,0,4.1571760177612305,0,12188,12210,12209,12189,12242,12277,12237,12242,32258,129,58,71,1497,-16644,1056,0,0,0,4.1571760177612305
1,31452,30484,30488,30028,30960,-119,-252,16772,-1,0,0,4.19966197013855,0,12211,12233,12212,12217,12222,12238,12232,12233,32262,34,23,19,1497,-16644,1056,0,0,0,4.19966197013855
1,31532,30524,30484,30012,30980,-119,-252,16772,-1,0,0,4.243510961532593,0,12233,12247,12238,12239,12223,12218,12227,12233,32322,44,11,15,1497,-16644,1056,0,0,0,4.243510961532593
1,31492,30520,30452,30092,30972,-119,-252,16772,-1,0,0,4.282656908035278,0,12192,12197,12212,12226,12215,12234,12240,12249,32229,77,62,19,1497,-16644,1056,0,0,0,4.282656908035278
1,31484,30528,30492,30020,30904,-119,-252,16772,-1,0,0,4.32115364074707,0,12209,12227,12243,12236,12201,12228,12213,12215,32236,44,46,28,1497,-16644,1056,0,0,0,4.32115364074707
1,31512,30560,30492,30056,31012,-119,-252,16772,-1,0,0,4.361703395843506,0,12122,12215,12204,12244,12231,12224,12217,12200,32120,146,68,80,1497,-16644,1056,0,0,0,4.361703395843506
1,31524,30568,30492,30112,31080,-119,-252,16772,-1,0,0,4.403098821640015,0,12225,12223,12180,12137,12210,12224,12208,12231,32102,124,91,64,1497,-16644,1056,0,0,0,4.403098821640015
1,31452,30576,30468,30072,30964,-119,-252,16772,-1,0,0,4.444915771484375,0,12253,12241,12206,12222,12234,12223,12237,12199,32279,15,61,64,1497,-16644,1056,0,0,0,4.444915771484375
1,31472,30532,30504,30100,30952,-119,-252,16772,-1,0,0,4.487895488739014,0,12158,12157,12235,12234,12212,12191,12205,12186,32042,118,100,20,1497,-16644,1056,0,0,0,4.487895488739014
1,31472,30552,30388,30072,30968,-119,-252,16772,-1,0,0,4.534195423126221,0,12174,12159,12186,12185,12157,12188,12194,12178,31885,25,51,43,1497,-16644,1056,0,0,0,4.534195423126221
1,31416,30440,30416,30060,30892,-119,-252,16772,-1,0,0,4.579859733581543,0,12230,12233,12235,12231,12214,12209,12186,12203,32204,86,24,22,1497,-16644,1056,0,0,0,4.579859733581543
1,31476,30512,30516,30124,30924,-119,-252,16772,-1,0,0,4.619637966156006,0,12174,12207,12198,12192,12213,12220,12222,12215,32104,58,38,46,1497,-16644,1056,0,0,0,4.619637966156006
1,31500,30560,30468,30064,30948,-119,-252,16772,-1,0,0,4.664148807525635,0,12194,12226,12231,12262,12192,12195,12204,12216,32183,81,75,30,1497,-16644,1056,0,0,0,4.664148807525635
1,31460,30572,30488,30116,30980,-119,-252,16772,-1,0,0,4.718827247619629,0,12230,12225,12212,12217,12202,12198,12207,12221,32176,54,19,12,1497,-16644,1056,0,0,0,4.718827247619629
1,31552,30588,30480,30088,30956,-119,-252,16772,-1,0,0,4.776713609695435,0,12251,12253,12237,12216,12210,12220,12234,12233,32318,77,26,10,1497,-16644,1056,0,0,0,4.776713609695435
1,31532,30600,30548,30112,30932,-119,-252,16772,-1,0,0,4.82757043838501,0,12234,12221,12228,12232,12224,12185,12196,12197,32181,82,41,20,1497,-16644,1056,0,0,0,4.82757043838501
1,31512,30584,30492,30028,30976,-119,-252,16772,-1,0,0,4.869858980178833,0,12177,12197,12153,12169,12213,12197,12201,12197,31968,69,45,62,1497,-16644,1056,0,0,0,4.869858980178833
1,31484,30516,30488,30088,30976,-119,-252,16772,-1,0,0,4.914642095565796,0,12156,12233,12210,12174,12214,12172,12191,12218,32032,35,33,132,1497,-16644,1056,0,0,0,4.914642095565796
1,31480,30476,30484,30048,30996,-119,-252,16772,-1,0,0,4.954660892486572,0,12123,12176,12183,12209,12210,12234,12239,12224,32061,159,91,56,1497,-16644,1056,0,0,0,4.954660892486572
1,31532,30492,30504,30088,31048,-119,-252,16772,-1,0,0,4.990622282028198,0,12221,12252,12237,12240,12251,12247,12248,12220,32379,41,41,34,1497,-16644,1056,0,0,0,4.990622282028198
1,31520,30588,30484,30056,30960,-119,-252,16772,-1,0,0,5.028613328933716,0,12225,12202,12200,12221,12229,12213,12216,12224,32193,27,48,6,1497,-16644,1056,0,0,0,5.028613328933716
1,31424,30468,30508,30060,30928,-119,-252,16772,-1,0,0,5.0801780223846436,0,12232,12235,12231,12208,12213,12209,12217,12216,32225,50,20,5,1497,-16644,1056,0,0,0,5.0801780223846436
1,31488,30528,30404,30024,30912,-119,-252,16772,-1,0,0,5.117173433303833,0,12260,12224,12231,12218,12226,12220,12225,12231,32299,46,30,25,1497,-16644,1056,0,0,0,5.117173433303833
1,31468,30456,30420,30052,30884,-119,-252,16772,-1,0,0,5.15584921836853,0,12195,12206,12241,12220,12196,12196,12187,12183,32088,89,37,27,1497,-16644,1056,0,0,0,5.15584921836853
1,31476,30504,30496,30044,30988,-119,-252,16772,-1,0,0,5.19196081161499,0,12244,12185,12159,12193,12228,12226,12238,12240,32177,142,78,20,1497,-16644,1056,0,0,0,5.19196081161499
1,31436,30476,30536,30092,30952,-119,-252,16772,-1,0,0,5.234421968460083,0,12184,12185,12135,12220,12175,12167,12195,12173,31898,18,50,109,1497,-16644,1056,0,0,0,5.234421968460083
1,31460,30524,30488,30096,30992,-119,-252,16772,-1,0,0,5.284897327423096,0,12171,12195,12180,12180,12208,12220,12217,12227,32061,90,19,54,1497,-16644,1056,0,0,0,5.284897327423096
1,31472,30480,30508,30112,30904,-119,-252,16772,-1,0,0,5.326828956604004,0,12215,12220,12227,12215,12230,12231,12241,12234,32276,36,23,21,1497,-16644,1056,0,0,0,5.326828956604004
1,31460,30492,30436,30060,30960,-119,-252,16772,-1,0,0,5.3624372482299805,0,12251,12228,12196,12224,12225,12221,12217,12222,32248,32,63,35,1497,-16644,1056,0,0,0,5.3624372482299805
1,31428,30560,30480,30084,30960,-119,-252,16772,-1,0,0,5.395475625991821,0,12249,12248,12245,12252,12254,12234,12219,12243,32408,42,41,12,1497,-16644,1056,0,0,0,5.395475625991821
1,31460,30504,30484,30068,31012,-119,-252,16772,-1,0,0,5.433227062225342,0,12160,12232,12202,12195,12244,12249,12253,12249,32248,116,63,110,1497,-16644,1056,0,0,0,5.433227062225342
1,31520,30528,30528,30032,31036,-119,-252,16772,-1,0,0,5.474642276763916,0,12215,12277,12202,12231,12241,12241,12256,12252,32379,45,35,92,1497,-16644,1056,0,0,0,5.474642276763916
1,31500,30548,30440,30076,30960,-119,-252,16772,-1,0,0,5.510289192199707,0,12269,12215,12239,12191,12228,12240,12235,12260,32341,95,23,71,1497,-16644,1056,0,0,0,5.510289192199707
1,31468,30516,30496,30120,30928,-119,-252,16772,-1,0,0,5.549672603607178,0,12204,12216,12231,12261,12237,12258,12269,12289,32428,97,96,25,1497,-16644,1056,0,0,0,5.549672603607178
1,31428,30496,30468,30048,30980,-119,-252,16772,-1,0,0,5.585625886917114,0,12198,12219,12235,12222,12230,12252,12247,12284,32351,80,64,76,1497,-16644,1056,0,0,0,5.585625886917114
1,31468,30512,30448,30128,30988,-119,-252,16772,-1,0,0,5.622636318206787,0,12192,12208,12237,12251,12258,12280,12252,12224,32365,143,41,17,1497,-16644,1056,0,0,0,5.622636318206787
1,31464,30536,30484,30048,30980,-119,-252,16772,-1,0,0,5.65895938873291,0,12223,12206,12253,12231,12248,12260,12243,12258,32385,64,33,67,1497,-16644,1056,0,0,0,5.65895938873291
1,31488,30604,30476,30076,31008,-119,-252,16772,-1,0,0,5.6916539669036865,0,12280,12255,12245,12231,12248,12256,12250,12241,32470,40,51,25,1497,-16644,1056,0,0,0,5.6916539669036865
1,31556,30480,30484,30040,31000,-119,-252,16772,-1,0,0,5.726735353469849,0,12261,12255,12246,12221,12240,12238,12238,12226,32388,40,49,5,1497,-16644,1056,0,0,0,5.726735353469849
1,31476,30536,30528,30076,30988,-119,-252,16772,-1,0,0,5.796482086181641,0,12268,12271,12259,12251,12272,12264,12266,12229,32544,19,57,28,1497,-16644,1056,0,0,0,5.796482086181641
1,31484,30492,30464,30088,31092,-119,-252,16772,-1,0,0,5.853181838989258,0,12259,12266,12245,12230,12224,12238,12243,12244,32412,65,30,9,1497,-16644,1056,0,0,0,5.853181838989258
1,31556,30508,30508,30064,30992,-119,-252,16772,-1,0,0,5.902653932571411,0,12261,12275,12273,12226,12220,12211,12233,12254,32416,124,25,28,1497,-16644,1056,0,0,0,5.902653932571411
1,31476,30476,30444,30060,30984,-119,-252,16772,-1,0,0,5.945787668228149,0,12211,12177,12232,12206,12265,12259,12257,12280,32351,147,51,98,1497,-16644,1056,0,0,0,5.945787668228149
1,31532,30488,30468,30012,30940,-119,-252,16772,-1,0,0,5.985050916671753,0,12318,12272,12215,12227,12253,12202,12197,12221,32369,131,161,40,1497,-16644,1056,0,0,0,5.985050916671753
1,31504,30540,30484,30100,30992,-119,-252,16772,-1,0,0,6.025080680847168,0,12246,12239,12232,12222,12235,12241,12224,12209,32312,15,55,21,1497,-16644,1056,0,0,0,6.025080680847168
1,31488,30540,30460,30044,31012,-119,-252,16772,-1,0,0,6.070767164230347,0,12234,12249,12245,12243,12233,12152,12149,12224,32193,186,98,55,1497,-16644,1056,0,0,0,6.070767164230347
1,31528,30548,30472,30080,30912,-119,-252,16772,-1,0,0,6.113636016845703,0,12238,12240,12229,12214,12192,12236,12234,12205,32252,42,65,51,1497,-16644,1056,0,0,0,6.113636016845703
1,31532,30492,30440,30060,30980,-119,-252,16772,-1,0,0,6.158890724182129,0,12227,12234,12225,12213,12200,12217,12223,12223,32225,46,25,8,1497,-16644,1056,0,0,0,6.158890724182129
1,31456,30512,30532,30064,30976,-119,-252,16772,-1,0,0,6.202661514282227,0,12178,12230,12215,12205,12214,12199,12173,12184,32061,83,40,43,1497,-16644,1056,0,0,0,6.202661514282227
1,31536,30520,30432,30092,30956,-119,-252,16772,-1,0,0,6.246666669845581,0,12131,12181,12221,12203,12207,12196,12205,12226,32034,71,102,92,1497,-16644,1056,0,0,0,6.246666669845581
1,31492,30552,30488,30036,30956,-119,-252,16772,-1,0,0,6.29369044303894,0,12190,12234,12228,12185,12189,12198,12191,12176,32055,71,81,18,1497,-16644,1056,0,0,0,6.29369044303894
1,31476,30520,30544,30096,30980,-119,-252,16772,-1,0,0,6.337934255599976,0,12218,12219,12205,12193,12196,12210,12218,12208,32131,42,29,10,1497,-16644,1056,0,0,0,6.337934255599976
1,31436,30472,30444,30092,30972,-119,-252,16772,-1,0,0,6.375641107559204,0,12225,12203,12215,12183,12222,12230,12235,12219,32196,65,31,24,1497,-16644,1056,0,0,0,6.375641107559204
1,31492,30544,30480,30084,30944,-119,-252,16772,-1,0,0,6.413648843765259,0,12211,12197,12208,12221,12217,12214,12190,12219,32141,20,41,29,1497,-16644,1056,0,0,0,6.413648843765259
1,31476,30520,30520,30036,30932,-119,-252,16772,-1,0,0,6.44673752784729,0,12183,12195,12190,12182,12208,12217,12189,12180,32008,43,51,17,1497,-16644,1056,0,0,0,6.44673752784729
1,31440,30468,30504,30028,31016,-119,-252,16772,-1,0,0,6.488294363021851,0,12220,12202,12243,12235,12223,12220,12205,12177,32188,87,11,51,1497,-16644,1056,0,0,0,6.488294363021851
1,31508,30500,30484,30076,30944,-119,-252,16772,-1,0,0,6.527814149856567,0,12224,12233,12254,12237,12250,12204,12185,12189,32240,129,36,19,1497,-16644,1056,0,0,0,6.527814149856567
1,31528,30508,30528,30120,30976,-119,-252,16772,-1,0,0,6.57273006439209,0,12218,12224,12237,12250,12220,12218,12225,12229,32285,33,44,11,1497,-16644,1056,0,0,0,6.57273006439209
1,31532,30580,30488,30076,31032,-119,-252,16772,-1,0,0,6.62856388092041,0,12208,12158,12139,12165,12212,12163,12207,12200,31916,97,86,47,1497,-16644,1056,0,0,0,6.62856388092041
1,31520,30480,30476,30028,30944,-119,-252,16772,-1,0,0,6.6846911907196045,0,12226,12248,12238,12212,12197,12217,12208,12206,32216,73,52,11,1497,-16644,1056,0,0,0,6.6846911907196045
1,31496,30532,30472,30056,30924,-119,-252,16772,-1,0,0,6.735130071640015,0,12212,12208,12214,12231,12228,12199,12178,12178,32112,92,48,17,1497,-16644,1056,0,0,0,6.735130071640015
1,31472,30528,30460,30044,30904,-119,-252,16772,-1,0,0,6.775577068328857,0,12219,12239,12268,12244,12228,12223,12211,12201,32297,102,36,18,1497,-16644,1056,0,0,0,6.775577068328857
1,31496,30440,30440,30088,30980,-119,-252,16772,-1,0,0,6.813643932342529,0,12234,12238,12234,12224,12215,12221,12218,12232,32280,42,4,9,1497,-16644,1056,0,0,0,6.813643932342529
1,31508,30472,30448,30052,30968,-119,-252,16772,-1,0,0,6.852093935012817,0,12256,12237,12235,12220,12238,12224,12233,12226,32332,32,30,5,1497,-16644,1056,0,0,0,6.852093935012817
1,31540,30488,30420,30080,30892,-119,-252,16772,-1,0,0,6.892698764801025,0,12216,12215,12227,12240,12244,12242,12230,12216,32294,64,3,8,1497,-16644,1056,0,0,0,6.892698764801025
1,31464,30560,30488,30108,30932,-119,-252,16772,-1,0,0,6.9306640625,0,12255,12252,12217,12217,12235,12235,12227,12244,32346,53,52,11,1497,-16644,1056,0,0,0,6.9306640625
1,31440,30544,30468,30108,30880,-119,-252,16772,-1,0,0,6.969131231307983,0,12224,12263,12256,12237,12229,12196,12222,12214,32304,101,26,46,1497,-16644,1056,0,0,0,6.969131231307983
1,31504,30532,30464,30092,30964,-119,-252,16772,-1,0,0,7.007144451141357,0,12224,12226,12233,12255,12251,12239,12235,12258,32385,36,48,21,1497,-16644,1056,0,0,0,7.007144451141357
1,31476,30560,30432,30048,31040,-119,-252,16772,-1,0,0,7.04560399055481,0,12256,12243,12240,12228,12222,12219,12236,12243,32351,62,9,6,1497,-16644,1056,0,0,0,7.04560399055481
1,31516,30544,30464,30036,30980,-119,-252,16772,-1,0,0,7.0816545486450195,0,12236,12249,12240,12253,12265,12238,12233,12227,32405,51,28,26,1497,-16644,1056,0,0,0,7.0816545486450195
1,31440,30580,30552,30124,30912,-119,-252,16772,-1,0,0,7.11773681640625,0,12242,12228,12221,12221,12225,12229,12245,12239,32314,47,3,11,1497,-16644,1056,0,0,0,7.11773681640625
1,31524,30552,30484,30108,30984,-119,-252,16772,-1,0,0,7.158760070800781,0,12198,12240,12271,12209,12228,12224,12231,12225,32290,40,81,66,1497,-16644,1056,0,0,0,7.158760070800781
1,31504,30516,30492,30104,30996,-119,-252,16772,-1,0,0,7.197136163711548,0,12194,12209,12200,12218,12202,12216,12222,12221,32146,31,29,15,1497,-16644,1056,0,0,0,7.197136163711548
1,31480,30600,30496,30076,30980,-119,-252,16772,-1,0,0,7.238723278045654,0,12205,12201,12194,12166,12190,12186,12200,12197,32003,50,24,18,1497,-16644,1056,0,0,0,7.238723278045654
1,31504,30548,30508,30100,30972,-119,-252,16772,-1,0,0,7.276746988296509,0,12208,12215,12204,12238,12239,12234,12205,12185,32192,85,46,31,1497,-16644,1056,0,0,0,7.276746988296509
1,31508,30572,30460,30088,30984,-119,-252,16772,-1,0,0,7.314848184585571,0,12217,12206,12185,12199,12224,12217,12191,12229,32132,35,65,30,1497,-16644,1056,0,0,0,7.314848184585571
1,31500,30496,30512,30044,30992,-119,-252,16772,-1,0,0,7.34711480140686,0,12230,12231,12205,12215,12213,12202,12168,12132,32060,118,110,69,1497,-16644,1056,0,0,0,7.34711480140686
1,31440,30528,30480,30092,30960,-119,-252,16772,-1,0,0,7.3817644119262695,0,12209,12151,12173,12200,12230,12209,12205,12203,32044,96,74,21,1497,-16644,1056,0,0,0,7.3817644119262695
1,31544,30532,30488,30100,31008,-119,-252,16772,-1,0,0,7.4201953411102295,0,12199,12224,12195,12214,12233,12238,12225,12204,32196,60,45,32,1497,-16644,1056,0,0,0,7.4201953411102295
1,31492,30592,30504,30084,30972,-119,-252,16772,-1,0,0,7.460052967071533,0,12231,12235,12179,12200,12208,12216,12218,12199,32150,43,66,54,1497,-16644,1056,0,0,0,7.460052967071533
1,31488,30528,30452,30072,31000,-119,-252,16772,-1,0,0,7.504026651382446,0,12218,12218,12228,12219,12223,12200,12190,12209,32169,57,25,21,1497,-16644,1056,0,0,0,7.504026651382446
1,31548,30524,30512,30016,30952,-119,-252,16772,-1,0,0,7.55259108543396,0,12239,12262,12146,12110,12175,12195,12218,12208,32017,203,147,72,1497,-16644,1056,0,0,0,7.55259108543396
1,31496,30544,30448,30072,30952,-119,-252,16772,-1,0,0,7.608189105987549,0,12174,12172,12195,12224,12220,12206,12224,12219,32097,88,69,20,1497,-16644,1056,0,0,0,7.608189105987549
1,31456,30468,30528,30028,30996,-119,-252,16772,-1,0,0,7.6576573848724365,0,12225,12211,12215,12222,12203,12204,12196,12225,32165,36,36,22,1497,-16644,1056,0,0,0,7.6576573848724365
1,31484,30552,30480,30080,31044,-119,-252,16772,-1,0,0,7.702621698379517,0,12229,12180,12192,12240,12248,12251,12243,12228,32275,120,55,40,1497,-16644,1056,0,0,0,7.702621698379517
1,31460,30584,30496,30080,31016,-119,-252,16772,-1,0,0,7.7410728931427,0,12236,12221,12216,12227,12227,12214,12220,12206,32231,15,27,30,1497,-16644,1056,0,0,0,7.7410728931427
1,31460,30536,30492,30084,30992,-119,-252,16772,-1,0,0,7.780194997787476,0,12249,12221,12234,12237,12242,12256,12242,12229,32374,35,18,39,1497,-16644,1056,0,0,0,7.780194997787476
1,31536,30548,30452,30132,31024,-119,-252,16772,-1,0,0,7.830876111984253,0,12255,12140,12231,12275,12243,12228,12244,12237,32317,91,145,103,1497,-16644,1056,0,0,0,7.830876111984253
1,31548,30636,30436,30088,30968,-119,-252,16772,-1,0,0,7.887736082077026,0,12220,12225,12236,12220,12219,12227,12219,12249,32279,20,23,42,1497,-16644,1056,0,0,0,7.887736082077026
1,31532,30556,30468,30100,30976,-119,-252,16772,-1,0,0,7.942661762237549,0,12225,12199,12196,12201,12198,12200,12203,12223,32109,47,34,15,1497,-16644,1056,0,0,0,7.942661762237549
1,31424,30456,30456,30028,30940,-119,-252,16772,-1,0,0,8.001211881637573,0,12212,12202,12195,12186,12197,12208,12197,12213,32074,39,20,21,1497,-16644,1056,0,0,0,8.001211881637573
1,31508,30448,30488,30028,30904,-119,-252,16772,-1,0,0,8.05278205871582,0,12206,12167,12202,12192,12212,12207,12222,12215,32087,67,33,25,1497,-16644,1056,0,0,0,8.05278205871582
1,31424,30524,30416,30032,30972,-119,-252,16772,-1,0,0,8.102986097335815,0,12241,12216,12209,12220,12227,12230,12215,12242,32264,37,46,21,1497,-16644,1056,0,0,0,8.102986097335815
1,31456,30472,30456,30020,30928,-119,-252,16772,-1,0,0,8.157864332199097,0,12199,12149,12126,12250,12219,12214,12225,12192,32037,149,103,115,1497,-16644,1056,0,0,0,8.157864332199097
1,31448,30536,30504,30052,30928,-119,-252,16772,-1,0,0,8.203673124313354,0,12188,12146,12178,12243,12232,12257,12228,12229,32165,177,70,48,1497,-16644,1056,0,0,0,8.203673124313354
1,31504,30588,30480,30088,30976,-119,-252,16772,-1,0,0,8.25541377067566,0,12249,12223,12229,12235,12254,12241,12226,12212,32332,34,50,23,1497,-16644,1056,0,0,0,8.25541377067566
1,31580,30504,30472,30116,30952,-119,-252,16772,-1,0,0,8.2990140914917,0,12237,12253,12217,12158,12187,12194,12211,12213,32133,130,76,30,1497,-16644,1056,0,0,0,8.2990140914917
1,31472,30512,30440,30100,30996,-119,-252,16772,-1,0,0,8.343254804611206,0,12219,12213,12189,12190,12211,12209,12196,12234,32125,54,45,33,1497,-16644,1056,0,0,0,8.343254804611206
1,31500,30540,30456,30048,30956,-119,-252,16772,-1,0,0,8.384893894195557,0,12228,12216,12215,12234,12231,12222,12201,12204,32215,42,43,22,1497,-16644,1056,0,0,0,8.384893894195557
1,31464,30572,30412,30052,30984,-119,-252,16772,-1,0,0,8.428833484649658,0,12215,12202,12136,12195,12199,12225,12222,12200,32057,105,64,72,1497,-16644,1056,0,0,0,8.428833484649658
1,31472,30476,30452,30052,30988,-119,-252,16772,-1,0,0,8.47410273551941,0,12224,12204,12179,12256,12241,12238,12211,12178,32195,96,75,88,1497,-16644,1056,0,0,0,8.47410273551941
1,31512,30580,30524,30056,30980,-119,-252,16772,-1,0,0,8.510366201400757,0,12252,12253,12246,12228,12202,12190,12168,12191,32193,163,46,32,1497,-16644,1056,0,0,0,8.510366201400757
1,31452,30604,30448,30020,30972,-119,-252,16772,-1,0,0,8.557260513305664,0,12198,12222,12233,12203,12206,12209,12214,12206,32155,26,48,22,1497,-16644,1056,0,0,0,8.557260513305664
1,31492,30492,30448,30048,30988,-119,-252,16772,-1,0,0,8.60149884223938,0,12238,12239,12238,12232,12212,12183,12196,12201,32202,112,19,21,1497,-16644,1056,0,0,0,8.60149884223938
1,31512,30508,30420,30024,30944,-119,-252,16772,-1,0,0,8.645114183425903,0,12197,12181,12165,12198,12202,12215,12225,12219,32066,99,22,21,1497,-16644,1056,0,0,0,8.645114183425903
1,31468,30524,30448,30080,30968,-119,-252,16772,-1,0,0,8.682819128036499,0,12198,12208,12193,12214,12219,12214,12205,12191,32106,41,25,24,1497,-16644,1056,0,0,0,8.682819128036499
1,31488,30516,30472,30068,30988,-119,-252,16772,-1,0,0,8.723066806793213,0,12218,12221,12209,12200,12201,12205,12213,12235,32166,55,9,21,1497,-16644,1056,0,0,0,8.723066806793213
1,31496,30496,30416,30068,30972,-119,-252,16772,-1,0,0,8.763863325119019,0,12202,12227,12223,12207,12203,12197,12215,12198,32136,38,38,25,1497,-16644,1056,0,0,0,8.763863325119019
1,31532,30472,30484,29992,30992,-119,-252,16772,-1,0,0,8.801029443740845,0,12198,12200,12192,12200,12201,12203,12211,12202,32071,22,4,15,1497,-16644,1056,0,0,0,8.801029443740845
1,31480,30508,30456,30112,30980,-119,-252,16772,-1,0,0,8.838244199752808,0,12237,12237,12233,12181,12198,12237,12230,12215,32232,66,82,30,1497,-16644,1056,0,0,0,8.838244199752808
1,31528,30580,30492,30092,30904,-119,-252,16772,-1,0,0,8.877187490463257,0,12232,12260,12259,12268,12271,12248,12228,12230,32459,87,18,21,1497,-16644,1056,0,0,0,8.877187490463257
1,31524,30564,30480,30088,30932,-119,-252,16772,-1,0,0,8.915291547775269,0,12241,12230,12236,12222,12232,12220,12211,12233,32289,34,26,26,1497,-16644,1056,0,0,0,8.915291547775269
1,31496,30564,30452,30080,30972,-119,-252,16772,-1,0,0,8.95360016822815,0,12226,12242,12239,12234,12198,12212,12202,12223,32240,77,17,16,1497,-16644,1056,0,0,0,8.95360016822815
1,31564,30576,30472,30096,31016,-119,-252,16772,-1,0,0,8.991688251495361,0,12197,12219,12226,12225,12229,12238,12246,12248,32292,57,48,36,1497,-16644,1056,0,0,0,8.991688251495361
1,31452,30532,30464,30072,31000,-119,-252,16772,-1,0,0,9.029521226882935,0,12246,12228,12216,12207,12237,12218,12211,12203,32230,19,66,6,1497,-16644,1056,0,0,0,9.029521226882935
1,31516,30600,30468,30088,31008,-119,-252,16772,-1,0,0,9.069464683532715,0,12223,12233,12218,12232,12249,12218,12213,12212,32262,41,41,29,1497,-16644,1056,0,0,0,9.069464683532715
1,31492,30504,30484,30040,30928,-119,-252,16772,-1,0,0,9.106516361236572,0,12210,12216,12217,12219,12225,12211,12234,12248,32244,35,43,39,1497,-16644,1056,0,0,0,9.106516361236572
1,31480,30512,30432,30012,30976,-119,-252,16772,-1,0,0,9.144222259521484,0,12247,12261,12260,12250,12226,12202,12225,12213,32348,109,12,33,1497,-16644,1056,0,0,0,9.144222259521484
1,31508,30528,30460,30052,30888,-119,-252,16772,-1,0,0,9.180986404418945,0,12237,12233,12246,12252,12265,12254,12260,12246,32456,53,11,9,1497,-16644,1056,0,0,0,9.180986404418945
1,31580,30556,30476,30080,30960,-119,-252,16772,-1,0,0,9.218639850616455,0,12241,12222,12221,12212,12226,12235,12251,12253,32325,76,9,9,1497,-16644,1056,0,0,0,9.218639850616455
1,31492,30504,30472,30108,31012,-119,-252,16772,-1,0,0,9.255551099777222,0,12232,12170,12207,12227,12235,12229,12242,12250,32255,97,80,32,1497,-16644,1056,0,0,0,9.255551099777222
1,31476,30556,30476,30088,31024,-119,-252,16772,-1,0,0,9.29176115989685,0,12226,12222,12260,12280,12257,12227,12251,12238,32425,73,74,17,1497,-16644,1056,0,0,0,9.29176115989685
1,31488,30528,30492,30088,30988,-119,-252,16772,-1,0,0,9.324890613555908,0,12223,12193,12201,12206,12223,12266,12245,12245,32266,125,8,42,1497,-16644,1056,0,0,0,9.324890613555908
1,31576,30540,30496,30120,31004,-119,-252,16772,-1,0,0,9.364514827728271,0,12265,12223,12196,12254,12216,12238,12248,12222,32325,42,39,104,1497,-16644,1056,0,0,0,9.364514827728271
1,31552,30612,30500,30092,31008,-119,-252,16772,-1,0,0,9.397783756256104,0,12225,12215,12211,12236,12247,12223,12216,12225,32262,35,50,11,1497,-16644,1056,0,0,0,9.397783756256104
1,31500,30508,30484,30056,31008,-119,-252,16772,-1,0,0,9.434783935546875,0,12241,12255,12244,12293,12275,12248,12207,12212,32439,131,65,31,1497,-16644,1056,0,0,0,9.434783935546875
1,31504,30520,30496,30100,31012,-119,-252,16772,-1,0,0,9.474286079406738,0,12219,12157,12149,12176,12206,12200,12214,12235,32020,139,82,7,1497,-16644,1056,0,0,0,9.474286079406738
1,31552,30488,30512,30064,30952,-119,-252,16772,-1,0,0,9.509199857711792,0,12251,12235,12249,12194,12227,12204,12196,12206,32225,85,51,40,1497,-16644,1056,0,0,0,9.509199857711792
1,31512,30436,30472,30096,30952,-119,-252,16772,-1,0,0,9.541727304458618,0,12179,12163,12096,12175,12213,12209,12225,12225,31949,199,76,71,1497,-16644,1056,0,0,0,9.541727304458618
1,31536,30480,30492,30132,31048,-119,-252,16772,-1,0,0,9.58661413192749,0,12184,12175,12193,12207,12215,12176,12212,12200,32026,39,56,34,1497,-16644,1056,0,0,0,9.58661413192749
1,31492,30512,30444,30060,30920,-119,-252,16772,-1,0,0,9.624237537384033,0,12192,12239,12281,12189,12206,12185,12177,12183,32116,147,79,78,1497,-16644,1056,0,0,0,9.624237537384033
1,31476,30520,30524,30080,31032,-119,-252,16772,-1,0,0,9.665626287460327,0,12200,12240,12276,12236,12252,12236,12244,12253,32401,43,69,78,1497,-16644,1056,0,0,0,9.665626287460327
1,31456,30516,30512,30068,30948,-119,-252,16772,-1,0,0,9.709599733352661,0,12258,12185,12126,12190,12202,12199,12199,12236,32059,139,141,45,1497,-16644,1056,0,0,0,9.709599733352661
1,31484,30536,30548,30076,30996,-119,-252,16772,-1,0,0,9.749345064163208,0,12242,12237,12210,12183,12210,12209,12207,12201,32163,65,71,4,1497,-16644,1056,0,0,0,9.749345064163208
1,31500,30556,30512,30120,31044,-119,-252,16772,-1,0,0,9.789889097213745,0,12242,12247,12227,12230,12238,12226,12208,12224,32306,40,48,6,1497,-16644,1056,0,0,0,9.789889097213745
1,31512,30528,30468,30100,30968,-119,-252,16772,-1,0,0,9.83217167854309,0,12232,12215,12223,12243,12246,12249,12244,12272,32388,67,52,25,1497,-16644,1056,0,0,0,9.83217167854309
1,31492,30556,30516,30112,30996,-119,-252,16772,-1,0,0,9.869265079498291,0,12214,12170,12205,12256,12243,12221,12196,12189,32158,114,77,54,1497,-16644,1056,0,0,0,9.869265079498291
1,31492,30544,30460,30040,30928,-119,-252,16772,-1,0,0,9.904946088790894,0,12192,12232,12091,12166,12226,12212,12203,12233,32019,147,131,123,1497,-16644,1056,0,0,0,9.904946088790894
1,31440,30536,30524,30048,30960,-119,-252,16772,-1,0,0,9.945028066635132,0,12235,12219,12205,12212,12196,12213,12222,12228,32193,59,8,25,1497,-16644,1056,0,0,0,9.945028066635132
1,31488,30560,30476,30044,31004,-119,-252,16772,-1,0,0,9.980781078338623,0,12229,12218,12221,12228,12237,12222,12184,12192,32195,69,64,24,1497,-16644,1056,0,0,0,9.980781078338623
1,31476,30592,30484,30108,31060,-119,-252,16772,-1,0,0,10.018206357955933,0,12182,12215,12207,12221,12190,12191,12198,12211,32079,33,42,23,1497,-16644,1056,0,0,0,10.018206357955933
1,31512,30616,30428,30100,31020,-119,-252,16772,-1,0,0,10.050764799118042,0,12232,12214,12213,12209,12186,12207,12188,12188,32100,57,29,56,1497,-16644,1056,0,0,0,10.050764799118042
1,31512,30516,30520,30064,30944,-119,-252,16772,-1,0,0,10.092482089996338,0,12230,12224,12218,12223,12235,12228,12234,12198,32254,25,33,34,1497,-16644,1056,0,0,0,10.092482089996338
1,31484,30552,30412,30020,30980,-119,-252,16772,-1,0,0,10.12950325012207,0,12250,12214,12215,12228,12242,12218,12223,12236,32290,19,62,5,1497,-16644,1056,0,0,0,10.12950325012207
1,31528,30548,30480,30060,30984,-119,-252,16772,-1,0,0,10.167557954788208,0,12225,12197,12169,12231,12246,12246,12224,12231,32233,105,80,24,1497,-16644,1056,0,0,0,10.167557954788208
1,31412,30468,30484,30004,31000,-119,-252,16772,-1,0,0,10.205302238464355,0,12225,12235,12222,12213,12239,12246,12250,12247,32341,59,22,30,1497,-16644,1056,0,0,0,10.205302238464355
1,31440,30520,30508,30024,30936,-119,-252,16772,-1,0,0,10.245259523391724,0,12237,12253,12252,12230,12208,12213,12205,12231,32292,94,13,19,1497,-16644,1056,0,0,0,10.245259523391724
1,31524,30556,30460,30148,31028,-119,-252,16772,-1,0,0,10.282069206237793,0,12247,12243,12216,12220,12250,12255,12246,12219,32360,39,68,23,1497,-16644,1056,0,0,0,10.282069206237793
1,31456,30536,30492,30072,30976,-119,-252,16772,-1,0,0,10.32230019569397,0,12270,12248,12247,12223,12248,12255,12250,12269,32474,64,23,34,1497,-16644,1056,0,0,0,10.32230019569397
1,31548,30484,30568,30116,30952,-119,-252,16772,-1,0,0,10.3596351146698,0,12247,12262,12253,12263,12267,12242,12241,12239,32477,48,20,25,1497,-16644,1056,0,0,0,10.3596351146698
1,31516,30516,30448,30084,30960,-119,-252,16772,-1,0,0,10.398296594619751,0,12224,12238,12246,12244,12253,12241,12250,12245,32405,31,21,27,1497,-16644,1056,0,0,0,10.398296594619751
1,31464,30528,30504,30148,31000,-119,-252,16772,-1,0,0,10.437386274337769,0,12133,12222,12234,12214,12186,12202,12223,12217,32095,43,138,69,1497,-16644,1056,0,0,0,10.437386274337769
1,31512,30508,30528,30136,30984,-119,-252,16772,-1,0,0,10.478805780410767,0,12204,12227,12218,12233,12235,12238,12261,12245,32325,66,42,41,1497,-16644,1056,0,0,0,10.478805780410767
1,31548,30532,30492,30060,30972,-119,-252,16772,-1,0,0,10.517563343048096,0,12225,12250,12218,12203,12216,12219,12231,12239,32265,58,28,39,1497,-16644,1056,0,0,0,10.517563343048096
1,31524,30584,30468,30096,31052,-119,-252,16772,-1,0,0,10.556450366973877,0,12199,12250,12254,12276,12258,12210,12215,12202,32328,145,21,54,1497,-16644,1056,0,0,0,10.556450366973877
1,31508,30540,30480,30088,30948,-119,-252,16772,-1,0,0,10.592712879180908,0,12171,12207,12246,12244,12245,12241,12260,12246,32323,104,99,52,1497,-16644,1056,0,0,0,10.592712879180908
1,31488,30512,30516,30064,30980,-119,-252,16772,-1,0,0,10.629262208938599,0,12255,12253,12236,12212,12219,12243,12237,12233,32352,58,51,15,1497,-16644,1056,0,0,0,10.629262208938599
1,31512,30460,30508,30000,30960,-119,-252,16772,-1,0,0,10.66744327545166,0,12205,12233,12226,12225,12232,12245,12224,12216,32269,41,39,12,1497,-16644,1056,0,0,0,10.66744327545166
1,31540,30540,30504,30064,30944,-119,-252,16772,-1,0,0,10.70332407951355,0,12221,12205,12198,12211,12230,12225,12245,12227,32225,73,11,22,1497,-16644,1056,0,0,0,10.70332407951355
1,31540,30540,30504,30096,31028,-119,-252,16772,-1,0,0,10.739193201065063,0,12201,12217,12176,12162,12171,12217,12225,12227,32060,121,53,16,1497,-16644,1056,0,0,0,10.739193201065063
1,31512,30560,30476,30048,30968,-119,-252,16772,-1,0,0,10.774306535720825,0,12205,12237,12230,12203,12205,12204,12206,12218,32172,50,32,35,1497,-16644,1056,0,0,0,10.774306535720825
1,31444,30484,30508,30080,30964,-119,-252,16772,-1,0,0,10.815744161605835,0,12206,12218,12196,12227,12242,12234,12231,12226,32244,66,21,34,1497,-16644,1056,0,0,0,10.815744161605835
1,31496,30488,30496,30108,30984,-119,-252,16772,-1,0,0,10.85422658920288,0,12209,12205,12196,12094,12103,12186,12192,12193,31842,196,128,64,1497,-16644,1056,0,0,0,10.85422658920288
1,31444,30468,30476,30052,30932,-119,-252,16772,-1,0,0,10.891918659210205,0,12201,12205,12200,12222,12258,12194,12194,12185,32123,85,65,47,1497,-16644,1056,0,0,0,10.891918659210205
1,31464,30536,30436,29988,30972,-119,-252,16772,-1,0,0,10.929701805114746,0,12196,12195,12224,12151,12217,12238,12252,12276,32213,151,63,120,1497,-16644,1056,0,0,0,10.929701805114746
1,31516,30512,30456,30092,31012,-119,-252,16772,-1,0,0,10.969758033752441,0,12252,12250,12245,12250,12216,12226,12229,12249,32380,62,23,19,1497,-16644,1056,0,0,0,10.969758033752441
1,31552,30500,30504,29980,30932,-119,-252,16772,-1,0,0,11.007436752319336,0,12232,12248,12188,12230,12193,12225,12241,12213,32234,49,30,88,1497,-16644,1056,0,0,0,11.007436752319336
1,31480,30544,30540,30072,30940,-119,-252,16772,-1,0,0,11.052052021026611,0,12227,12227,12166,12140,12200,12211,12224,12233,32092,153,74,50,1497,-16644,1056,0,0,0,11.052052021026611
1,31448,30548,30504,30060,30968,-119,-252,16772,-1,0,0,11.094918251037598,0,12192,12244,12241,12247,12228,12228,12249,12250,32342,22,74,52,1497,-16644,1056,0,0,0,11.094918251037598
1,31516,30672,30492,30080,31008,-119,-252,16772,-1,0,0,11.136621236801147,0,12298,12275,12243,12250,12228,12246,12250,12265,32519,101,33,42,1497,-16644,1056,0,0,0,11.136621236801147
1,31552,30476,30476,30068,31012,-119,-252,16772,-1,0,0,11.191426753997803,0,12220,12210,12190,12167,12211,12237,12238,12249,32186,133,31,41,1497,-16644,1056,0,0,0,11.191426753997803
1,31488,30492,30484,30072,31008,-119,-252,16772,-1,0,0,11.2325918674469,0,12166,12201,12199,12211,12205,12231,12229,12230,32136,79,57,31,1497,-16644,1056,0,0,0,11.2325918674469
1,31492,30532,30484,30148,30888,-119,-252,16772,-1,0,0,11.275736570358276,0,12215,12245,12151,12190,12291,12194,12193,12194,32137,38,171,137,1497,-16644,1056,0,0,0,11.275736570358276
1,31480,30624,30520,30056,30876,-119,-252,16772,-1,0,0,11.313570499420166,0,12151,12187,12200,12187,12210,12208,12220,12213,32040,76,59,63,1497,-16644,1056,0,0,0,11.313570499420166
1,31540,30524,30456,30052,30956,-119,-252,16772,-1,0,0,11.352187395095825,0,12189,12254,12217,12190,12172,12193,12194,12199,32072,89,76,35,1497,-16644,1056,0,0,0,11.352187395095825
1,31512,30576,30488,30136,31088,-119,-252,16772,-1,0,0,11.390742778778076,0,12219,12225,12215,12224,12228,12243,12225,12230,32272,32,15,6,1497,-16644,1056,0,0,0,11.390742778778076
1,31548,30516,30544,30084,30896,-119,-252,16772,-1,0,0,11.42934799194336,0,12217,12206,12211,12209,12239,12229,12242,12248,32265,75,22,35,1497,-16644,1056,0,0,0,11.42934799194336
1,31464,30500,30464,30052,30908,-119,-252,16772,-1,0,0,11.467505693435669,0,12176,12236,12221,12235,12224,12213,12210,12216,32195,60,31,54,1497,-16644,1056,0,0,0,11.467505693435669
1,31464,30508,30476,30052,30984,-119,-252,16772,-1,0,0,11.506622314453125,0,12143,12207,12214,12219,12238,12242,12234,12246,32207,119,68,92,1497,-16644,1056,0,0,0,11.506622314453125
1,31516,30524,30452,30028,30996,-119,-252,16772,-1,0,0,11.543672800064087,0,12218,12225,12215,12207,12206,12213,12238,12221,32207,38,30,22,1497,-16644,1056,0,0,0,11.543672800064087
1,31468,30500,30504,30060,30964,-119,-252,16772,-1,0,0,11.575839757919312,0,12210,12221,12219,12228,12255,12229,12214,12195,32235,77,41,20,1497,-16644,1056,0,0,0,11.575839757919312
1,31476,30580,30436,30072,30972,-119,-252,16772,-1,0,0,11.611644744873047,0,12242,12224,12230,12229,12222,12236,12244,12242,32332,37,14,19,1497,-16644,1056,0,0,0,11.611644744873047
1,31464,30484,30516,30096,30960,-119,-252,16772,-1,0,0,11.651164531707764,0,12215,12219,12234,12246,12254,12242,12250,12257,32380,62,44,31,1497,-16644,1056,0,0,0,11.651164531707764
1,31464,30504,30500,30132,30948,-119,-252,16772,-1,0,0,11.690361261367798,0,12246,12254,12146,12138,12217,12231,12226,12242,32164,181,138,64,1497,-16644,1056,0,0,0,11.690361261367798
1,31468,30488,30480,30048,30904,-119,-252,16772,-1,0,0,11.736498832702637,0,12190,12216,12191,12219,12206,12224,12210,12216,32136,32,7,17,1497,-16644,1056,0,0,0,11.736498832702637
1,31516,30480,30468,30092,30952,-119,-252,16772,-1,0,0,11.783201694488525,0,12175,12208,12209,12204,12191,12197,12193,12184,32025,44,39,11,1497,-16644,1056,0,0,0,11.783201694488525
1,31484,30468,30480,30068,30984,-119,-252,16772,-1,0,0,11.823336601257324,0,12272,12246,12196,12201,12219,12233,12223,12226,32280,87,88,32,1497,-16644,1056,0,0,0,11.823336601257324
1,31496,30536,30452,30040,30960,-119,-252,16772,-1,0,0,11.865756034851074,0,12234,12230,12203,12206,12227,12226,12227,12223,32240,39,41,16,1497,-16644,1056,0,0,0,11.865756034851074
1,31452,30488,30504,30100,31016,-119,-252,16772,-1,0,0,11.903165102005005,0,12235,12258,12250,12250,12243,12242,12208,12217,32367,79,38,8,1497,-16644,1056,0,0,0,11.903165102005005
1,31496,30480,30436,30012,30904,-119,-252,16772,-1,0,0,11.93865156173706,0,12197,12174,12203,12227,12230,12225,12220,12234,32174,86,62,24,1497,-16644,1056,0,0,0,11.93865156173706
1,31448,30556,30468,30064,30896,-119,-252,16772,-1,0,0,11.970277547836304,0,12198,12205,12155,12186,12213,12240,12238,12220,32119,132,42,37,1497,-16644,1056,0,0,0,11.970277547836304
1,31492,30572,30480,30128,30960,-119,-252,16772,-1,0,0,12.002197742462158,0,12199,12206,12222,12213,12218,12199,12215,12215,32151,16,30,25,1497,-16644,1056,0,0,0,12.002197742462158
1,31452,30564,30460,30072,31024,-119,-252,16772,-1,0,0,12.034140825271606,0,12221,12217,12208,12184,12174,12176,12203,12188,32034,84,26,26,1497,-16644,1056,0,0,0,12.034140825271606
1,31508,30520,30480,30060,30980,-119,-252,16772,-1,0,0,12.065627574920654,0,12205,12206,12155,12180,12207,12204,12201,12204,32026,63,61,36,1497,-16644,1056,0,0,0,12.065627574920654
1,31476,30548,30520,30096,30960,-119,-252,16772,-1,0,0,12.092609167098999,0,12214,12219,12216,12238,12224,12244,12201,12195,32215,64,36,38,1497,-16644,1056,0,0,0,12.092609167098999
1,31508,30540,30440,30080,30916,-119,-252,16772,-1,0,0,12.121160507202148,0,12217,12234,12214,12151,12181,12209,12222,12194,32086,86,105,12,1497,-16644,1056,0,0,0,12.121160507202148
1,31468,30516,30528,30040,30952,-119,-252,16772,-1,0,0,12.146628618240356,0,12169,12196,12220,12190,12196,12171,12159,12174,31938,92,14,46,1497,-16644,1056,0,0,0,12.146628618240356
1,31480,30512,30452,30096,30932,-119,-252,16772,-1,0,0,12.168610095977783,0,12190,12224,12160,12194,12209,12183,12195,12203,32022,20,45,79,1497,-16644,1056,0,0,0,12.168610095977783
1,31524,30520,30424,30080,30928,-119,-252,16772,-1,0,0,12.195058584213257,0,12213,12191,12167,12216,12244,12210,12205,12195,32104,69,85,39,1497,-16644,1056,0,0,0,12.195058584213257
1,31420,30564,30472,30064,30908,-119,-252,16772,-1,0,0,12.2208833694458,0,12269,12255,12244,12206,12200,12197,12205,12219,32259,138,33,20,1497,-16644,1056,0,0,0,12.2208833694458
1,31440,30492,30392,30044,30964,-119,-252,16772,-1,0,0,12.242887735366821,0,12243,12215,12178,12188,12198,12219,12212,12217,32133,84,58,29,1497,-16644,1056,0,0,0,12.242887735366821
1,31416,30492,30504,30012,30960,-119,-252,16772,-1,0,0,12.269193410873413,0,12194,12200,12208,12201,12243,12224,12260,12257,32251,111,46,71,1497,-16644,1056,0,0,0,12.269193410873413
1,31480,30520,30484,30016,30964,-119,-252,16772,-1,0,0,12.292677402496338,0,12217,12233,12239,12197,12247,12254,12243,12242,32336,52,51,63,1497,-16644,1056,0,0,0,12.292677402496338
1,31544,30556,30476,30052,31016,-119,-252,16772,-1,0,0,12.320130348205566,0,12220,12233,12228,12235,12233,12230,12227,12232,32302,14,4,13,1497,-16644,1056,0,0,0,12.320130348205566
1,31504,30544,30492,30072,31064,-119,-252,16772,-1,0,0,12.346625804901123,0,12233,12264,12234,12238,12249,12241,12230,12224,32377,31,46,31,1497,-16644,1056,0,0,0,12.346625804901123
1,31464,30544,30448,30100,30984,-119,-252,16772,-1,0,0,12.373647928237915,0,12243,12240,12244,12185,12232,12251,12250,12229,32337,56,79,35,1497,-16644,1056,0,0,0,12.373647928237915
1,31484,30492,30452,30056,30940,-119,-252,16772,-1,0,0,12.394709348678589,0,12258,12225,12217,12242,12250,12281,12263,12249,32449,94,31,42,1497,-16644,1056,0,0,0,12.394709348678589
1,31424,30460,30464,30076,31008,-119,-252,16772,-1,0,0,12.41921353340149,0,12232,12262,12271,12250,12232,12204,12214,12224,32353,118,22,22,1497,-16644,1056,0,0,0,12.41921353340149
1,31416,30476,30464,30064,30880,-119,-252,16772,-1,0,0,12.445173978805542,0,12213,12242,12252,12261,12269,12231,12223,12215,32370,106,7,33,1497,-16644,1056,0,0,0,12.445173978805542
1,31464,30552,30460,30088,30948,-119,-252,16772,-1,0,0,12.471187829971313,0,12233,12223,12217,12148,12241,12225,12235,12238,32224,99,65,84,1497,-16644,1056,0,0,0,12.471187829971313
1,31476,30476,30484,30032,30928,-119,-252,16772,-1,0,0,12.492703437805176,0,12210,12217,12223,12220,12215,12206,12232,12222,32209,4,35,20,1497,-16644,1056,0,0,0,12.492703437805176
1,31424,30496,30424,30064,30936,-119,-252,16772,-1,0,0,12.51852822303772,0,12229,12227,12229,12241,12248,12233,12249,12252,32372,35,33,23,1497,-16644,1056,0,0,0,12.51852822303772
1,31520,30488,30420,30084,30936,-119,-252,16772,-1,0,0,12.543492078781128,0,12218,12214,12195,12181,12219,12214,12231,12233,32169,81,17,37,1497,-16644,1056,0,0,0,12.543492078781128
1,31508,30452,30424,30060,30956,-119,-252,16772,-1,0,0,12.569474220275879,0,12282,12207,12242,12209,12204,12227,12226,12214,32275,67,21,94,1497,-16644,1056,0,0,0,12.569474220275879
1,31456,30544,30404,30012,30928,-119,-252,16772,-1,0,0,12.594949960708618,0,12201,12221,12227,12239,12253,12250,12252,12227,32334,89,25,26,1497,-16644,1056,0,0,0,12.594949960708618
1,31464,30500,30420,30072,30956,-119,-252,16772,-1,0,0,12.616466045379639,0,12217,12226,12176,12233,12291,12252,12229,12200,32288,125,112,66,1497,-16644,1056,0,0,0,12.616466045379639
1,31476,30532,30544,30072,30980,-119,-252,16772,-1,0,0,12.644127368927002,0,12249,12259,12185,12248,12238,12224,12228,12237,32332,29,74,75,1497,-16644,1056,0,0,0,12.644127368927002
1,31464,30564,30480,30056,30988,-119,-252,16772,-1,0,0,12.66510009765625,0,12213,12242,12262,12236,12235,12226,12188,12199,32265,117,33,37,1497,-16644,1056,0,0,0,12.66510009765625
1,31484,30492,30504,30084,30928,-119,-252,16772,-1,0,0,12.69428277015686,0,12232,12231,12197,12195,12211,12223,12225,12216,32193,55,47,18,1497,-16644,1056,0,0,0,12.69428277015686
1,31492,30572,30556,30056,30940,-119,-252,16772,-1,0,0,12.721760034561157,0,12236,12206,12165,12100,12167,12226,12207,12210,31981,188,125,50,1497,-16644,1056,0,0,0,12.721760034561157
1,31508,30588,30412,30048,30964,-119,-252,16772,-1,0,0,12.747226476669312,0,12177,12220,12233,12214,12182,12198,12199,12220,32107,47,74,33,1497,-16644,1056,0,0,0,12.747226476669312
1,31508,30524,30488,30076,30968,-119,-252,16772,-1,0,0,12.769171237945557,0,12241,12237,12203,12139,12166,12203,12216,12204,32073,149,97,10,1497,-16644,1056,0,0,0,12.769171237945557
1,31480,30468,30532,30176,30960,-119,-252,16772,-1,0,0,12.794272661209106,0,12180,12187,12141,12151,12166,12202,12199,12205,31895,114,33,16,1497,-16644,1056,0,0,0,12.794272661209106
1,31472,30500,30424,30016,30940,-119,-252,16772,-1,0,0,12.822485208511353,0,12242,12188,12191,12214,12200,12218,12210,12214,32141,45,46,63,1497,-16644,1056,0,0,0,12.822485208511353
1,31480,30504,30416,30080,31004,-119,-252,16772,-1,0,0,12.851982593536377,0,12203,12203,12203,12174,12183,12206,12202,12219,32057,59,24,36,1497,-16644,1056,0,0,0,12.851982593536377
1,31544,30564,30416,30080,31004,-119,-252,16772,-1,0,0,12.877517938613892,0,12166,12214,12194,12207,12229,12214,12227,12242,32157,69,33,88,1497,-16644,1056,0,0,0,12.877517938613892
1,31428,30500,30432,30036,30964,-119,-252,16772,-1,0,0,12.903661727905273,0,12202,12230,12236,12259,12243,12253,12279,12265,32430,82,81,36,1497,-16644,1056,0,0,0,12.903661727905273
1,31488,30532,30356,30064,30928,-119,-252,16772,-1,0,0,12.924638509750366,0,12217,12218,12148,12149,12208,12234,12236,12227,32100,163,86,40,1497,-16644,1056,0,0,0,12.924638509750366
1,31512,30520,30472,30084,30932,-119,-252,16772,-1,0,0,12.951133251190186,0,12238,12232,12250,12313,12311,12211,12204,12210,32433,187,124,44,1497,-16644,1056,0,0,0,12.951133251190186
1,31476,30536,30468,30096,31008,-119,-252,16772,-1,0,0,12.974130153656006,0,12205,12233,12218,12234,12229,12236,12228,12221,32267,35,18,21,1497,-16644,1056,0,0,0,12.974130153656006
1,31440,30540,30444,30104,30972,-119,-252,16772,-1,0,0,13.002883434295654,0,12231,12225,12242,12276,12308,12240,12229,12212,32427,141,71,30,1497,-16644,1056,0,0,0,13.002883434295654
1,31464,30516,30532,30068,30968,-119,-252,16772,-1,0,0,13.029298067092896,0,12239,12241,12231,12161,12207,12194,12197,12247,32181,126,32,87,1497,-16644,1056,0,0,0,13.029298067092896
1,31548,30496,30452,30028,30984,-119,-252,16772,-1,0,0,13.057146549224854,0,12240,12230,12246,12230,12225,12215,12210,12216,32276,58,9,21,1497,-16644,1056,0,0,0,13.057146549224854
1,31492,30528,30436,30008,30948,-119,-252,16772,-1,0,0,13.085144996643066,0,12225,12235,12194,12255,12216,12212,12204,12201,32206,46,43,71,1497,-16644,1056,0,0,0,13.085144996643066
1,31448,30584,30484,30072,31036,-119,-252,16772,-1,0,0,13.107545614242554,0,12191,12232,12232,12229,12216,12211,12214,12195,32183,66,43,26,1497,-16644,1056,0,0,0,13.107545614242554
1,31428,30532,30508,30060,30968,-119,-252,16772,-1,0,0,13.135129928588867,0,12168,12208,12215,12200,12188,12227,12210,12217,32097,29,71,35,1497,-16644,1056,0,0,0,13.135129928588867
1,31432,30448,30448,30056,30992,-119,-252,16772,-1,0,0,13.164870977401733,0,12213,12218,12126,12170,12181,12195,12211,12209,31987,122,66,74,1497,-16644,1056,0,0,0,13.164870977401733
1,31488,30520,30460,30092,30972,-119,-252,16772,-1,0,0,13.192534685134888,0,12299,12236,12237,12222,12209,12210,12208,12233,32318,122,63,66,1497,-16644,1056,0,0,0,13.192534685134888
1,31464,30492,30552,30056,31004,-119,-252,16772,-1,0,0,13.21583890914917,0,12200,12226,12215,12216,12182,12203,12278,12268,32252,109,123,55,1497,-16644,1056,0,0,0,13.21583890914917
1,31460,30524,30480,30112,30940,-119,-252,16772,-1,0,0,13.238476753234863,0,12214,12205,12158,12097,12134,12195,12195,12188,31850,178,115,22,1497,-16644,1056,0,0,0,13.238476753234863
1,31496,30580,30464,30120,31016,-119,-252,16772,-1,0,0,13.262484550476074,0,12201,12201,12178,12184,12193,12205,12255,12255,32136,141,51,46,1497,-16644,1056,0,0,0,13.262484550476074
1,31532,30520,30472,30076,30972,-119,-252,16772,-1,0,0,13.285166263580322,0,12195,12238,12241,12214,12184,12246,12241,12231,32254,24,110,18,1497,-16644,1056,0,0,0,13.285166263580322
1,31444,30536,30548,30108,30940,-119,-252,16772,-1,0,0,13.31164836883545,0,12164,12179,12225,12203,12215,12222,12223,12230,32125,78,76,65,1497,-16644,1056,0,0,0,13.31164836883545
1,31516,30496,30556,30076,30952,-119,-252,16772,-1,0,0,13.33875584602356,0,12194,12227,12226,12224,12226,12211,12206,12193,32170,68,24,25,1497,-16644,1056,0,0,0,13.33875584602356
1,31532,30536,30504,30092,31008,-119,-252,16772,-1,0,0,13.362162351608276,0,12216,12209,12192,12279,12237,12202,12201,12183,32183,105,78,91,1497,-16644,1056,0,0,0,13.362162351608276
1,31536,30580,30476,30124,30968,-119,-252,16772,-1,0,0,13.390800714492798,0,12198,12194,12197,12211,12232,12217,12201,12194,32108,62,32,5,1497,-16644,1056,0,0,0,13.390800714492798
1,31456,30556,30480,30092,31052,-119,-252,16772,-1,0,0,13.423139095306396,0,12202,12195,12143,12223,12197,12234,12213,12200,32071,90,43,76,1497,-16644,1056,0,0,0,13.423139095306396
1,31548,30524,30516,30096,30984,-119,-252,16772,-1,0,0,13.451317071914673,0,12230,12194,12205,12222,12204,12225,12235,12239,32218,65,42,36,1497,-16644,1056,0,0,0,13.451317071914673
1,31432,30588,30492,30056,30984,-119,-252,16772,-1,0,0,13.479314804077148,0,12215,12224,12247,12183,12231,12240,12233,12218,32255,22,71,58,1497,-16644,1056,0,0,0,13.479314804077148
1,31508,30488,30500,30032,30924,-119,-252,16772,-1,0,0,13.509048461914062,0,12219,12247,12228,12224,12225,12207,12232,12247,32292,39,23,53,1497,-16644,1056,0,0,0,13.509048461914062
1,31460,30488,30500,30064,30976,-119,-252,16772,-1,0,0,13.538285493850708,0,12242,12259,12266,12171,12189,12252,12260,12249,32352,121,131,56,1497,-16644,1056,0,0,0,13.538285493850708
1,31464,30492,30488,30060,30992,-119,-252,16772,-1,0,0,13.568538904190063,0,12265,12250,12225,12259,12268,12253,12220,12224,32428,40,90,29,1497,-16644,1056,0,0,0,13.568538904190063
1,31512,30564,30548,30024,31008,-119,-252,16772,-1,0,0,13.600931644439697,0,12244,12223,12248,12213,12208,12224,12239,12226,32289,44,35,33,1497,-16644,1056,0,0,0,13.600931644439697
1,31452,30428,30492,30096,30976,-119,-252,16772,-1,0,0,13.631393671035767,0,12230,12220,12215,12187,12198,12195,12182,12197,32088,71,43,23,1497,-16644,1056,0,0,0,13.631393671035767
1,31464,30556,30468,30080,30960,-119,-252,16772,-1,0,0,13.661542415618896,0,12233,12245,12159,12123,12179,12215,12201,12229,32048,178,119,43,1497,-16644,1056,0,0,0,13.661542415618896
1,31476,30548,30472,30096,30908,-119,-252,16772,-1,0,0,13.689944505691528,0,12256,12254,12308,12171,12220,12208,12217,12237,32335,138,72,113,1497,-16644,1056,0,0,0,13.689944505691528
1,31500,30644,30548,30048,30968,-119,-252,16772,-1,0,0,13.719295501708984,0,12275,12222,12215,12219,12228,12185,12200,12198,32206,80,88,44,1497,-16644,1056,0,0,0,13.719295501708984
1,31532,30532,30472,30068,31004,-119,-252,16772,-1,0,0,13.746784687042236,0,12243,12258,12240,12256,12200,12226,12209,12227,32322,86,6,42,1497,-16644,1056,0,0,0,13.746784687042236
1,31488,30516,30568,30056,31008,-119,-252,16772,-1,0,0,13.78160047531128,0,12222,12235,12224,12227,12208,12203,12198,12212,32193,64,8,7,1497,-16644,1056,0,0,0,13.78160047531128
1,31544,30544,30412,30116,31016,-119,-252,16772,-1,0,0,13.811963558197021,0,12195,12196,12207,12206,12198,12211,12221,12216,32114,32,38,3,1497,-16644,1056,0,0,0,13.811963558197021
1,31488,30576,30456,30096,30944,-119,-252,16772,-1,0,0,13.840659856796265,0,12216,12214,12217,12219,12225,12244,12235,12227,32260,51,16,11,1497,-16644,1056,0,0,0,13.840659856796265
1,31500,30544,30460,30084,31064,-119,-252,16772,-1,0,0,13.867490291595459,0,12151,12196,12193,12178,12214,12240,12203,12220,32059,95,49,79,1497,-16644,1056,0,0,0,13.867490291595459
1,31512,30600,30452,30028,31000,-119,-252,16772,-1,0,0,13.895183086395264,0,12175,12190,12178,12153,12230,12214,12208,12221,32033,98,35,92,1497,-16644,1056,0,0,0,13.895183086395264
1,31528,30520,30468,30144,30952,-119,-252,16772,-1,0,0,13.925519943237305,0,12255,12174,12186,12186,12181,12215,12186,12201,32048,68,64,100,1497,-16644,1056,0,0,0,13.925519943237305
1,31468,30532,30520,30108,31064,-119,-252,16772,-1,0,0,13.9531888961792,0,12190,12199,12259,12273,12241,12206,12228,12239,32299,94,120,25,1497,-16644,1056,0,0,0,13.9531888961792
1,31496,30540,30452,30056,30984,-119,-252,16772,-1,0,0,13.979835271835327,0,12201,12192,12180,12201,12200,12199,12202,12199,32037,26,21,19,1497,-16644,1056,0,0,0,13.979835271835327
1,31460,30580,30436,30076,30972,-119,-252,16772,-1,0,0,14.007572889328003,0,12212,12191,12167,12186,12177,12200,12209,12209,32015,78,13,31,1497,-16644,1056,0,0,0,14.007572889328003
1,31464,30476,30484,30092,30944,-119,-252,16772,-1,0,0,14.034069061279297,0,12242,12235,12213,12208,12234,12221,12201,12217,32235,28,69,11,1497,-16644,1056,0,0,0,14.034069061279297
1,31516,30564,30396,30068,31036,-119,-252,16772,-1,0,0,14.060752868652344,0,12182,12190,12210,12243,12229,12233,12239,12242,32232,97,72,15,1497,-16644,1056,0,0,0,14.060752868652344
1,31496,30528,30488,30032,30984,-119,-252,16772,-1,0,0,14.087768077850342,0,12215,12208,12217,12259,12253,12242,12235,12228,32321,86,40,17,1497,-16644,1056,0,0,0,14.087768077850342
1,31492,30500,30484,30080,31084,-119,-252,16772,-1,0,0,14.114636659622192,0,12228,12192,12201,12215,12219,12199,12207,12233,32158,29,69,11,1497,-16644,1056,0,0,0,14.114636659622192
1,31476,30512,30540,30036,30936,-119,-252,16772,-1,0,0,14.143947124481201,0,12210,12203,12235,12198,12217,12232,12249,12215,32223,49,61,18,1497,-16644,1056,0,0,0,14.143947124481201
1,31516,30544,30464,30068,30928,-119,-252,16772,-1,0,0,14.172451496124268,0,12182,12203,12203,12203,12211,12220,12213,12220,32119,44,23,32,1497,-16644,1056,0,0,0,14.172451496124268
1,31564,30484,30452,30060,31060,-119,-252,16772,-1,0,0,14.2032630443573,0,12212,12206,12186,12240,12234,12251,12231,12252,32276,96,45,4,1497,-16644,1056,0,0,0,14.2032630443573
1,31480,30548,30504,30148,30972,-119,-252,16772,-1,0,0,14.229663848876953,0,12215,12226,12233,12208,12209,12239,12241,12223,32258,28,60,12,1497,-16644,1056,0,0,0,14.229663848876953
1,31512,30472,30472,30084,30972,-119,-252,16772,-1,0,0,14.256846904754639,0,12240,12214,12214,12210,12163,12207,12226,12210,32148,82,37,74,1497,-16644,1056,0,0,0,14.256846904754639
1,31408,30532,30456,30056,30912,-119,-252,16772,-1,0,0,14.282362699508667,0,12218,12225,12225,12214,12234,12244,12255,12223,32302,54,42,13,1497,-16644,1056,0,0,0,14.282362699508667
1,31488,30496,30436,30064,30984,-119,-252,16772,-1,0,0,14.312118291854858,0,12200,12210,12226,12206,12220,12214,12228,12232,32200,23,36,40,1497,-16644,1056,0,0,0,14.312118291854858
1,31476,30548,30480,30024,30972,-119,-252,16772,-1,0,0,14.340460538864136,0,12238,12214,12222,12172,12189,12212,12198,12211,32120,78,43,54,1497,-16644,1056,0,0,0,14.340460538864136
1,31464,30376,30452,30036,30920,-119,-252,16772,-1,0,0,14.36751651763916,0,12194,12211,12217,12145,12219,12212,12213,12218,32092,54,62,94,1497,-16644,1056,0,0,0,14.36751651763916
1,31464,30472,30412,29996,31004,-119,-252,16772,-1,0,0,14.393040657043457,0,12196,12200,12221,12199,12203,12220,12207,12231,32141,22,30,53,1497,-16644,1056,0,0,0,14.393040657043457
1,31508,30468,30432,30088,30912,-119,-252,16772,-1,0,0,14.41837477684021,0,12224,12229,12200,12269,12225,12243,12252,12239,32345,51,36,70,1497,-16644,1056,0,0,0,14.41837477684021
1,31468,30492,30428,30032,30968,-119,-252,16772,-1,0,0,14.444922685623169,0,12177,12209,12217,12242,12226,12226,12244,12243,32248,72,76,40,1497,-16644,1056,0,0,0,14.444922685623169
1,31428,30472,30452,30036,30936,-119,-252,16772,-1,0,0,14.471505641937256,0,12216,12255,12222,12251,12259,12253,12244,12238,32402,52,21,47,1497,-16644,1056,0,0,0,14.471505641937256
1,31484,30484,30444,30048,30960,-119,-252,16772,-1,0,0,14.49564242362976,0,12218,12243,12138,12174,12212,12223,12222,12207,32100,102,110,81,1497,-16644,1056,0,0,0,14.49564242362976
1,31476,30512,30440,30016,30932,-119,-252,16772,-1,0,0,14.528472900390625,0,12181,12225,12231,12220,12213,12209,12234,12232,32209,12,73,52,1497,-16644,1056,0,0,0,14.528472900390625
1,31500,30464,30432,30060,30936,-119,-252,16772,-1,0,0,14.560902118682861,0,12186,12212,12206,12238,12213,12230,12223,12232,32204,50,41,13,1497,-16644,1056,0,0,0,14.560902118682861
1,31432,30480,30476,30008,30948,-119,-252,16772,-1,0,0,14.598957538604736,0,12220,12204,12197,12207,12208,12203,12229,12231,32163,56,31,16,1497,-16644,1056,0,0,0,14.598957538604736
1,31424,30480,30400,30040,30900,-119,-252,16772,-1,0,0,14.629978656768799,0,12227,12182,12197,12191,12187,12192,12184,12174,31997,27,34,59,1497,-16644,1056,0,0,0,14.629978656768799
1,31520,30516,30524,30060,31084,-119,-252,16772,-1,0,0,14.6556236743927,0,12210,12208,12212,12218,12227,12234,12220,12198,32190,51,26,15,1497,-16644,1056,0,0,0,14.6556236743927
1,31476,30532,30460,30044,31028,-119,-252,16772,-1,0,0,14.684431552886963,0,12236,12233,12225,12226,12202,12187,12200,12217,32190,87,26,15,1497,-16644,1056,0,0,0,14.684431552886963
1,31460,30564,30452,30064,30988,-119,-252,16772,-1,0,0,14.71212363243103,0,12248,12245,12257,12238,12196,12231,12226,12207,32312,74,49,64,1497,-16644,1056,0,0,0,14.71212363243103
1,31480,30484,30520,30096,31044,-119,-252,16772,-1,0,0,14.736690282821655,0,12278,12245,12274,12247,12259,12233,12235,12241,32476,56,29,30,1497,-16644,1056,0,0,0,14.736690282821655
1,31500,30480,30496,30016,31012,-119,-252,16772,-1,0,0,14.763270378112793,0,12248,12258,12208,12217,12171,12200,12220,12228,32214,127,15,53,1497,-16644,1056,0,0,0,14.763270378112793
1,31480,30576,30540,30044,31000,-119,-252,16772,-1,0,0,14.790403127670288,0,12258,12217,12229,12212,12250,12234,12242,12237,32342,44,37,16,1497,-16644,1056,0,0,0,14.790403127670288
1,31468,30580,30492,30120,31056,-119,-252,16772,-1,0,0,14.81777048110962,0,12249,12260,12240,12208,12221,12240,12251,12246,32379,72,50,13,1497,-16644,1056,0,0,0,14.81777048110962
1,31496,30508,30500,30072,30948,-119,-252,16772,-1,0,0,14.845081567764282,0,12267,12234,12216,12221,12253,12237,12226,12242,32360,37,78,7,1497,-16644,1056,0,0,0,14.845081567764282
1,31524,30476,30464,30092,30976,-119,-252,16772,-1,0,0,14.86817455291748,0,12200,12241,12233,12224,12206,12204,12206,12224,32202,56,33,32,1497,-16644,1056,0,0,0,14.86817455291748
1,31476,30468,30444,30088,30960,-119,-252,16772,-1,0,0,14.894378900527954,0,12249,12231,12222,12211,12233,12220,12216,12227,32272,35,45,10,1497,-16644,1056,0,0,0,14.894378900527954
1,31448,30488,30436,30028,30956,-119,-252,16772,-1,0,0,14.918728590011597,0,12225,12215,12177,12207,12214,12243,12231,12223,32199,85,41,30,1497,-16644,1056,0,0,0,14.918728590011597
1,31520,30504,30484,30024,30944,-119,-252,16772,-1,0,0,14.946772813796997,0,12170,12232,12198,12229,12229,12240,12244,12243,32248,82,43,70,1497,-16644,1056,0,0,0,14.946772813796997
1,31480,30564,30508,30024,30980,-119,-252,16772,-1,0,0,14.973695993423462,0,12241,12209,12179,12211,12185,12180,12226,12229,32123,97,55,59,1497,-16644,1056,0,0,0,14.973695993423462
1,31472,30556,30496,30060,30972,-119,-252,16772,-1,0,0,14.994423627853394,0,12230,12219,12193,12210,12283,12240,12243,12226,32308,94,80,54,1497,-16644,1056,0,0,0,14.994423627853394
1,31516,30540,30492,30052,30992,-119,-252,16772,-1,0,0,15.018721342086792,0,12215,12212,12248,12303,12265,12252,12278,12237,32474,125,88,54,1497,-16644,1056,0,0,0,15.018721342086792
1,31488,30532,30436,30044,31040,-119,-252,16772,-1,0,0,15.044949293136597,0,12244,12260,12312,12235,12243,12203,12224,12252,32437,127,54,78,1497,-16644,1056,0,0,0,15.044949293136597
1,31444,30552,30468,30056,30904,-119,-252,16772,-1,0,0,15.066582918167114,0,12239,12243,12251,12258,12264,12241,12229,12234,32423,57,24,10,1497,-16644,1056,0,0,0,15.066582918167114
1,31456,30508,30456,30072,30972,-119,-252,16772,-1,0,0,15.099026441574097,0,12218,12211,12228,12274,12231,12220,12229,12219,32294,66,62,46,1497,-16644,1056,0,0,0,15.099026441574097
1,31428,30520,30444,30036,30956,-119,-252,16772,-1,0,0,15.125685691833496,0,12240,12268,12248,12242,12255,12242,12243,12236,32437,27,32,34,1497,-16644,1056,0,0,0,15.125685691833496
1,31496,30492,30464,30140,30936,-119,-252,16772,-1,0,0,15.153195142745972,0,12244,12249,12216,12297,12279,12257,12232,12245,32482,78,83,47,1497,-16644,1056,0,0,0,15.153195142745972
1,31484,30544,30440,30080,30948,-119,-252,16772,-1,0,0,15.181022644042969,0,12274,12250,12211,12211,12231,12218,12228,12225,32312,75,73,31,1497,-16644,1056,0,0,0,15.181022644042969
1,31508,30488,30488,30092,30984,-119,-252,16772,-1,0,0,15.20774531364441,0,12198,12236,12219,12257,12244,12196,12218,12213,32244,77,38,72,1497,-16644,1056,0,0,0,15.20774531364441
1,31516,30516,30520,30072,30972,-119,-252,16772,-1,0,0,15.230061531066895,0,12231,12225,12197,12230,12200,12216,12222,12244,32229,55,35,26,1497,-16644,1056,0,0,0,15.230061531066895
1,31468,30472,30512,29996,30932,-119,-252,16772,-1,0,0,15.256769180297852,0,12239,12216,12145,12203,12234,12219,12244,12225,32188,118,84,81,1497,-16644,1056,0,0,0,15.256769180297852
1,31420,30592,30488,30036,30948,-119,-252,16772,-1,0,0,15.285165309906006,0,12237,12263,12231,12226,12226,12235,12238,12238,32358,39,34,25,1497,-16644,1056,0,0,0,15.285165309906006
1,31504,30588,30488,30052,30992,-119,-252,16772,-1,0,0,15.311748027801514,0,12253,12244,12177,12207,12243,12232,12248,12242,32309,97,75,59,1497,-16644,1056,0,0,0,15.311748027801514
1,31400,30548,30460,30084,30984,-119,-252,16772,-1,0,0,15.33650255203247,0,12262,12269,12258,12227,12226,12211,12221,12231,32369,109,23,7,1497,-16644,1056,0,0,0,15.33650255203247
1,31492,30560,30504,30072,30960,-119,-252,16772,-1,0,0,15.363342046737671,0,12263,12257,12276,12201,12213,12219,12234,12218,32345,105,66,29,1497,-16644,1056,0,0,0,15.363342046737671
1,31472,30520,30492,30084,30964,-119,-252,16772,-1,0,0,15.389737129211426,0,12215,12211,12184,12179,12173,12223,12248,12259,32156,157,44,6,1497,-16644,1056,0,0,0,15.389737129211426
1,31512,30556,30416,30080,30944,-119,-252,16772,-1,0,0,15.412043809890747,0,12284,12271,12249,12235,12254,12238,12252,12249,32496,64,44,16,1497,-16644,1056,0,0,0,15.412043809890747
1,31480,30500,30496,30084,30944,-119,-252,16772,-1,0,0,15.439507007598877,0,12159,12227,12248,12235,12246,12239,12226,12226,32269,103,69,76,1497,-16644,1056,0,0,0,15.439507007598877
1,31516,30524,30472,30056,30884,-119,-252,16772,-1,0,0,15.465811252593994,0,12231,12258,12265,12157,12178,12252,12231,12234,32269,112,147,84,1497,-16644,1056,0,0,0,15.465811252593994
1,31468,30520,30484,30064,30916,-119,-252,16772,-1,0,0,15.489233255386353,0,12227,12245,12218,12237,12232,12245,12248,12247,32363,37,9,25,1497,-16644,1056,0,0,0,15.489233255386353
1,31436,30548,30492,30084,30964,-119,-252,16772,-1,0,0,15.515564441680908,0,12246,12232,12225,12234,12224,12206,12221,12223,32275,44,30,24,1497,-16644,1056,0,0,0,15.515564441680908
1,31492,30528,30528,30080,31068,-119,-252,16772,-1,0,0,15.539401769638062,0,12228,12230,12213,12193,12221,12218,12185,12196,32148,38,77,21,1497,-16644,1056,0,0,0,15.539401769638062
1,31488,30528,30528,30112,30976,-119,-252,16772,-1,0,0,15.565855741500854,0,12246,12222,12194,12140,12153,12196,12197,12204,32015,159,74,37,1497,-16644,1056,0,0,0,15.565855741500854
1,31496,30560,30520,30096,30932,-119,-252,16772,-1,0,0,15.5895094871521,0,12221,12230,12233,12216,12207,12234,12213,12195,32213,32,55,32,1497,-16644,1056,0,0,0,15.5895094871521
1,31528,30548,30476,30056,31036,-119,-252,16772,-1,0,0,15.611871719360352,0,12228,12233,12185,12212,12225,12209,12209,12230,32195,38,58,38,1497,-16644,1056,0,0,0,15.611871719360352
1,31452,30536,30516,30048,31056,-119,-252,16772,-1,0,0,15.634745836257935,0,12204,12188,12225,12202,12249,12197,12231,12224,32183,45,41,56,1497,-16644,1056,0,0,0,15.634745836257935
1,31592,30560,30472,30152,30988,-119,-252,16772,-1,0,0,15.66378927230835,0,12260,12212,12184,12193,12225,12214,12220,12225,32197,82,81,18,1497,-16644,1056,0,0,0,15.66378927230835
1,31496,30468,30556,30064,30952,-119,-252,16772,-1,0,0,15.689290046691895,0,12194,12176,12161,12161,12199,12193,12209,12226,31983,109,29,40,1497,-16644,1056,0,0,0,15.689290046691895
1,31536,30492,30552,30096,31024,-119,-252,16772,-1,0,0,15.718472480773926,0,12183,12184,12192,12116,12147,12204,12206,12178,31874,97,116,44,1497,-16644,1056,0,0,0,15.718472480773926
1,31464,30496,30496,30068,30964,-119,-252,16772,-1,0,0,15.743818283081055,0,12201,12189,12193,12203,12179,12202,12216,12196,32042,28,30,40,1497,-16644,1056,0,0,0,15.743818283081055
1,31528,30504,30492,30048,30992,-119,-252,16772,-1,0,0,15.765384197235107,0,12208,12189,12201,12166,12255,12231,12231,12226,32170,107,41,73,1497,-16644,1056,0,0,0,15.765384197235107
1,31424,30572,30440,30056,30996,-119,-252,16772,-1,0,0,15.793207883834839,0,12234,12219,12204,12186,12263,12215,12184,12199,32168,21,119,48,1497,-16644,1056,0,0,0,15.793207883834839
1,31532,30492,30496,30088,31012,-119,-252,16772,-1,0,0,15.817465543746948,0,12183,12257,12229,12234,12249,12230,12225,12224,32295,61,36,81,1497,-16644,1056,0,0,0,15.817465543746948
1,31536,30608,30484,30020,30968,-119,-252,16772,-1,0,0,15.845499038696289,0,12226,12219,12231,12172,12148,12224,12191,12178,32053,85,104,90,1497,-16644,1056,0,0,0,15.845499038696289
1,31452,30524,30576,30060,30980,-119,-252,16772,-1,0,0,15.872811555862427,0,12149,12196,12218,12207,12220,12216,12211,12202,32083,88,60,56,1497,-16644,1056,0,0,0,15.872811555862427
1,31512,30592,30524,30064,30952,-119,-252,16772,-1,0,0,15.902283668518066,0,12130,12212,12226,12222,12200,12200,12210,12193,32057,93,106,59,1497,-16644,1056,0,0,0,15.902283668518066
1,31488,30532,30516,30104,30972,-119,-252,16772,-1,0,0,15.925048828125,0,12242,12243,12243,12225,12227,12230,12158,12181,32213,125,95,57,1497,-16644,1056,0,0,0,15.925048828125
1,31496,30568,30440,30120,31032,-119,-252,16772,-1,0,0,15.953734636306763,0,12202,12243,12284,12294,12277,12227,12228,12230,32449,156,63,41,1497,-16644,1056,0,0,0,15.953734636306763
1,31512,30560,30468,30036,30984,-119,-252,16772,-1,0,0,15.977887868881226,0,12222,12224,12221,12220,12223,12212,12217,12205,32207,23,13,15,1497,-16644,1056,0,0,0,15.977887868881226
1,31480,30512,30520,30056,30988,-119,-252,16772,-1,0,0,16.005051851272583,0,12235,12243,12176,12212,12221,12229,12243,12235,32258,83,44,61,1497,-16644,1056,0,0,0,16.005051851272583
1,31432,30548,30496,30052,30984,-119,-252,16772,-1,0,0,16.030875205993652,0,12223,12239,12257,12217,12195,12235,12240,12247,32317,52,79,35,1497,-16644,1056,0,0,0,16.030875205993652
1,31488,30512,30520,30064,30984,-119,-252,16772,-1,0,0,16.057174921035767,0,12255,12219,12243,12275,12249,12237,12243,12232,32416,41,54,52,1497,-16644,1056,0,0,0,16.057174921035767
1,31564,30516,30492,30096,31076,-119,-252,16772,-1,0,0,16.079209804534912,0,12199,12191,12236,12214,12226,12250,12222,12233,32235,68,33,69,1497,-16644,1056,0,0,0,16.079209804534912
1,31484,30504,30536,30116,31048,-119,-252,16772,-1,0,0,16.106619358062744,0,12261,12271,12254,12200,12296,12280,12256,12249,32531,43,112,74,1497,-16644,1056,0,0,0,16.106619358062744
1,31476,30560,30472,30076,31024,-119,-252,16772,-1,0,0,16.129804611206055,0,12211,12254,12276,12283,12278,12271,12262,12283,32582,79,63,60,1497,-16644,1056,0,0,0,16.129804611206055
1,31432,30496,30448,30080,31028,-119,-252,16772,-1,0,0,16.15793466567993,0,12276,12315,12253,12225,12280,12250,12208,12182,32453,121,184,36,1497,-16644,1056,0,0,0,16.15793466567993
1,31440,30536,30416,30068,30996,-119,-252,16772,-1,0,0,16.18559956550598,0,12266,12267,12291,12153,12185,12207,12180,12253,32266,211,70,142,1497,-16644,1056,0,0,0,16.18559956550598
1,31504,30524,30440,30092,31048,-119,-252,16772,-1,0,0,16.21368646621704,0,11805,12236,12392,12276,12339,11980,12168,12219,31879,594,500,674,1497,-16644,1056,0,0,0,16.21368646621704
1,31540,30492,30544,30052,31040,-119,-252,16772,-1,0,0,16.2398042678833,0,12375,12377,12338,12333,12231,12237,12236,12323,32913,314,52,52,1497,-16644,1056,0,0,0,16.2398042678833
1,31504,30520,30480,30088,30972,-119,-252,16772,-1,0,0,16.266709804534912,0,12015,12255,12517,12387,12347,12187,12235,12243,32650,579,432,308,1497,-16644,1056,0,0,0,16.266709804534912
1,31536,30536,30524,30088,30920,-119,-252,16772,-1,0,0,16.29971218109131,0,12605,12304,12313,12959,12461,12270,12032,12415,33823,722,1076,520,1497,-16644,1056,0,0,0,16.29971218109131
1,31544,30592,30516,30048,30904,-119,-252,16772,-1,0,0,16.329638481140137,0,12271,12397,12427,12299,12303,12305,12277,12198,32941,289,242,28,1497,-16644,1056,0,0,0,16.329638481140137
1,31500,30528,30512,30084,30952,-119,-252,16772,-1,0,0,16.361574411392212,0,12144,12216,12483,12494,12354,12326,12362,12264,33107,495,408,47,1497,-16644,1056,0,0,0,16.361574411392212
1,31500,30540,30496,30056,30936,-119,-252,16772,-1,0,0,16.389400243759155,0,12173,12005,12120,12254,12465,12428,12265,12168,32342,756,253,115,1497,-16644,1056,0,0,0,16.389400243759155
1,31492,30552,30536,30096,30984,-119,-252,16772,-1,0,0,16.41500210762024,0,12011,12234,12330,12191,12317,12306,12286,12205,32344,347,321,284,1497,-16644,1056,0,0,0,16.41500210762024
1,31512,30564,30472,30088,30984,-119,-252,16772,-1,0,0,16.444575548171997,0,12256,12320,12289,12358,12410,12296,12328,12329,33050,157,86,168,1497,-16644,1056,0,0,0,16.444575548171997
1,31496,30504,30500,30092,31016,-119,-252,16772,-1,0,0,16.466336250305176,0,12322,12280,12248,12254,12283,12353,12277,12233,32714,71,166,105,1497,-16644,1056,0,0,0,16.466336250305176
1,31508,30560,30472,30064,31028,-119,-252,16772,-1,0,0,16.48951768875122,0,12280,12283,12380,12273,12309,12313,12290,12239,32831,118,116,88,1497,-16644,1056,0,0,0,16.48951768875122
1,31524,30552,30480,30072,30980,-119,-252,16772,-1,0,0,16.51532816886902,0,12312,12288,12260,12271,12222,12243,12249,12278,32587,132,30,55,1497,-16644,1056,0,0,0,16.51532816886902
1,31496,30568,30512,30104,30976,-119,-252,16772,-1,0,0,16.538361072540283,0,12387,12354,12300,12257,12262,12268,12222,12241,32755,230,177,75,1497,-16644,1056,0,0,0,16.538361072540283
1,31440,30568,30492,30052,30932,-119,-252,16772,-1,0,0,16.566182136535645,0,12273,12322,12294,12236,12246,12225,12268,12313,32640,155,43,96,1497,-16644,1056,0,0,0,16.566182136535645
1,31472,30516,30524,30048,31048,-119,-252,16772,-1,0,0,16.591943502426147,0,12329,12319,12284,12286,12291,12252,12298,12330,32853,116,58,50,1497,-16644,1056,0,0,0,16.591943502426147
1,31452,30472,30468,30032,30960,-119,-252,16772,-1,0,0,16.61831521987915,0,12283,12303,12304,12270,12287,12214,12261,12243,32629,131,6,61,1497,-16644,1056,0,0,0,16.61831521987915
1,31516,30520,30488,30092,31024,-119,-252,16772,-1,0,0,16.64616632461548,0,12253,12260,12185,12191,12268,12239,12254,12272,32385,125,89,91,1497,-16644,1056,0,0,0,16.64616632461548
1,31484,30520,30492,30092,30940,-119,-252,16772,-1,0,0,16.673311710357666,0,12224,12237,12247,12228,12201,12196,12220,12202,32218,81,42,23,1497,-16644,1056,0,0,0,16.673311710357666
1,31476,30532,30520,30044,30968,-119,-252,16772,-1,0,0,16.703259468078613,0,12236,12186,12204,12213,12239,12246,12232,12260,32280,104,56,48,1497,-16644,1056,0,0,0,16.703259468078613
1,31464,30540,30476,30064,30920,-119,-252,16772,-1,0,0,16.72892689704895,0,12254,12257,12229,12251,12265,12271,12259,12245,32495,43,44,24,1497,-16644,1056,0,0,0,16.72892689704895
1,31472,30548,30508,30100,31016,-119,-252,16772,-1,0,0,16.757131338119507,0,12277,12270,12302,12257,12256,12264,12289,12292,32671,50,59,34,1497,-16644,1056,0,0,0,16.757131338119507
1,31540,30500,30476,30072,30976,-119,-252,16772,-1,0,0,16.778122901916504,0,12233,12227,12140,12120,12194,12234,12225,12250,32087,221,110,49,1497,-16644,1056,0,0,0,16.778122901916504
1,31464,30484,30500,30068,30908,-119,-252,16772,-1,0,0,16.80684804916382,0,12215,12245,12253,12284,12296,12271,12254,12251,32533,122,19,39,1497,-16644,1056,0,0,0,16.80684804916382
1,31468,30488,30504,30048,30928,-119,-252,16772,-1,0,0,16.832866430282593,0,12229,12227,12215,12245,12227,12223,12244,12262,32336,41,57,23,1497,-16644,1056,0,0,0,16.832866430282593
1,31484,30464,30444,30048,30980,-119,-252,16772,-1,0,0,16.858279705047607,0,12245,12229,12247,12302,12263,12221,12236,12214,32421,108,70,68,1497,-16644,1056,0,0,0,16.858279705047607
1,31536,30540,30476,30060,30952,-119,-252,16772,-1,0,0,16.888808727264404,0,12204,12273,12229,12223,12226,12238,12227,12230,32314,23,63,54,1497,-16644,1056,0,0,0,16.888808727264404
1,31452,30512,30440,30076,30928,-119,-252,16772,-1,0,0,16.914059162139893,0,12207,12225,12209,12230,12192,12198,12226,12211,32162,25,40,50,1497,-16644,1056,0,0,0,16.914059162139893
1,31472,30572,30520,30064,30996,-119,-252,16772,-1,0,0,16.94464612007141,0,12152,12200,12181,12195,12197,12184,12203,12222,31997,33,48,76,1497,-16644,1056,0,0,0,16.94464612007141
1,31508,30544,30600,30076,30996,-119,-252,16772,-1,0,0,16.973185300827026,0,12246,12220,12216,12209,12201,12227,12214,12197,32193,32,44,58,1497,-16644,1056,0,0,0,16.973185300827026
1,31516,30540,30476,30084,30992,-119,-252,16772,-1,0,0,16.99483323097229,0,12201,12204,12212,12230,12220,12233,12186,12212,32162,55,23,36,1497,-16644,1056,0,0,0,16.99483323097229
1,31508,30540,30428,30036,31092,-119,-252,16772,-1,0,0,17.017945528030396,0,12289,12243,12250,12233,12223,12214,12206,12215,32337,106,56,59,1497,-16644,1056,0,0,0,17.017945528030396
1,31516,30532,30448,30108,30988,-119,-252,16772,-1,0,0,17.046272039413452,0,12170,12221,12203,12224,12197,12205,12224,12232,32139,18,67,51,1497,-16644,1056,0,0,0,17.046272039413452
1,31524,30540,30524,30096,30960,-119,-252,16772,-1,0,0,17.07370924949646,0,12189,12206,12168,12140,12180,12228,12239,12208,32022,140,94,24,1497,-16644,1056,0,0,0,17.07370924949646
1,31516,30524,30508,30048,30996,-119,-252,16772,-1,0,0,17.09588885307312,0,12157,12199,12216,12236,12224,12218,12220,12225,32159,88,70,45,1497,-16644,1056,0,0,0,17.09588885307312
1,31448,30500,30484,30104,31008,-119,-252,16772,-1,0,0,17.12274169921875,0,12161,12242,12238,12206,12235,12239,12235,12248,32267,48,81,110,1497,-16644,1056,0,0,0,17.12274169921875
1,31516,30528,30560,30056,30980,-119,-252,16772,-1,0,0,17.145626306533813,0,12209,12218,12191,12194,12206,12202,12196,12198,32077,17,39,17,1497,-16644,1056,0,0,0,17.145626306533813
1,31504,30504,30500,30040,30964,-119,-252,16772,-1,0,0,17.177677631378174,0,12159,12223,12190,12167,12180,12193,12194,12205,31974,28,62,69,1497,-16644,1056,0,0,0,17.177677631378174
1,31468,30516,30452,30092,31036,-119,-252,16772,-1,0,0,17.203890323638916,0,12207,12221,12216,12204,12229,12240,12216,12241,32237,40,16,52,1497,-16644,1056,0,0,0,17.203890323638916
1,31456,30572,30452,30048,30992,-119,-252,16772,-1,0,0,17.231645584106445,0,12167,12190,12209,12209,12223,12219,12239,12231,32151,89,65,51,1497,-16644,1056,0,0,0,17.231645584106445
1,31480,30492,30452,30100,30964,-119,-252,16772,-1,0,0,17.261335372924805,0,12233,12203,12187,12237,12201,12174,12205,12202,32106,38,74,72,1497,-16644,1056,0,0,0,17.261335372924805
1,31452,30524,30412,30052,30956,-119,-252,16772,-1,0,0,17.288105010986328,0,12180,12235,12219,12195,12197,12239,12201,12201,32131,19,89,31,1497,-16644,1056,0,0,0,17.288105010986328
1,31484,30532,30472,30060,30988,-119,-252,16772,-1,0,0,17.31557536125183,0,12234,12206,12214,12204,12198,12213,12224,12212,32169,42,6,35,1497,-16644,1056,0,0,0,17.31557536125183
1,31484,30492,30496,30124,30916,-119,-252,16772,-1,0,0,17.34416937828064,0,12256,12257,12232,12169,12211,12233,12243,12217,32281,99,104,8,1497,-16644,1056,0,0,0,17.34416937828064
1,31504,30500,30528,30068,31024,-119,-252,16772,-1,0,0,17.370431423187256,0,12186,12218,12211,12224,12250,12256,12250,12260,32318,112,26,63,1497,-16644,1056,0,0,0,17.370431423187256
1,31476,30540,30504,30100,30988,-119,-252,16772,-1,0,0,17.39164423942566,0,12231,12218,12202,12195,12182,12233,12224,12225,32174,80,33,39,1497,-16644,1056,0,0,0,17.39164423942566
1,31520,30512,30484,30064,30984,-119,-252,16772,-1,0,0,17.419599294662476,0,12238,12201,12249,12224,12195,12214,12231,12238,32254,43,66,56,1497,-16644,1056,0,0,0,17.419599294662476
1,31496,30564,30508,30088,31088,-119,-252,16772,-1,0,0,17.444164276123047,0,12238,12233,12202,12211,12217,12220,12206,12137,32127,61,115,91,1497,-16644,1056,0,0,0,17.444164276123047
1,31452,30500,30496,30052,31012,-119,-252,16772,-1,0,0,17.466678142547607,0,12233,12238,12254,12235,12234,12238,12213,12193,32302,77,48,30,1497,-16644,1056,0,0,0,17.466678142547607
1,31528,30480,30420,30100,30960,-119,-252,16772,-1,0,0,17.49394941329956,0,12264,12249,12256,12232,12215,12215,12217,12210,32322,97,22,40,1497,-16644,1056,0,0,0,17.49394941329956
1,31524,30452,30440,30064,30900,-119,-252,16772,-1,0,0,17.51817011833191,0,12229,12205,12178,12169,12184,12217,12214,12222,32082,110,37,18,1497,-16644,1056,0,0,0,17.51817011833191
1,31496,30536,30516,30036,30960,-119,-252,16772,-1,0,0,17.5444917678833,0,12210,12218,12201,12211,12202,12195,12236,12236,32173,55,42,42,1497,-16644,1056,0,0,0,17.5444917678833
1,31516,30580,30536,30044,31000,-119,-252,16772,-1,0,0,17.572669982910156,0,12264,12223,12215,12242,12265,12254,12230,12251,32408,46,85,19,1497,-16644,1056,0,0,0,17.572669982910156
1,31508,30536,30488,30120,31008,-119,-252,16772,-1,0,0,17.594515323638916,0,12255,12240,12199,12122,12135,12207,12215,12221,32057,222,106,40,1497,-16644,1056,0,0,0,17.594515323638916
1,31496,30564,30544,30076,31036,-119,-252,16772,-1,0,0,17.61780071258545,0,12178,12218,12229,12233,12214,12179,12194,12202,32111,89,49,44,1497,-16644,1056,0,0,0,17.61780071258545
1,31516,30524,30504,30080,31028,-119,-252,16772,-1,0,0,17.639670848846436,0,12221,12213,12223,12210,12190,12192,12207,12231,32151,62,40,16,1497,-16644,1056,0,0,0,17.639670848846436
1,31468,30596,30484,30076,30996,-119,-252,16772,-1,0,0,17.665380001068115,0,12227,12213,12220,12221,12211,12219,12196,12213,32183,26,22,34,1497,-16644,1056,0,0,0,17.665380001068115
1,31516,30596,30496,30084,31012,-119,-252,16772,-1,0,0,17.68924880027771,0,12249,12300,12232,12238,12289,12264,12256,12238,32530,14,101,82,1497,-16644,1056,0,0,0,17.68924880027771
1,31516,30552,30484,30112,30980,-119,-252,16772,-1,0,0,17.715944051742554,0,12251,12236,12250,12261,12265,12256,12243,12216,32441,64,27,33,1497,-16644,1056,0,0,0,17.715944051742554
1,31460,30580,30472,30060,30984,-119,-252,16772,-1,0,0,17.743799209594727,0,12216,12262,12265,12224,12216,12225,12221,12224,32317,74,66,31,1497,-16644,1056,0,0,0,17.743799209594727
1,31504,30504,30488,30048,31008,-119,-252,16772,-1,0,0,17.76873207092285,0,12237,12253,12262,12218,12260,12231,12238,12244,32407,23,22,62,1497,-16644,1056,0,0,0,17.76873207092285
1,31528,30532,30492,30024,30996,-119,-252,16772,-1,0,0,17.792712926864624,0,12244,12242,12264,12239,12216,12223,12207,12221,32320,87,12,41,1497,-16644,1056,0,0,0,17.792712926864624
1,31476,30528,30472,30096,30984,-119,-252,16772,-1,0,0,17.822502374649048,0,12264,12236,12266,12231,12232,12180,12212,12238,32322,117,55,23,1497,-16644,1056,0,0,0,17.822502374649048
1,31432,30552,30524,30156,31012,-119,-252,16772,-1,0,0,17.851518869400024,0,12240,12239,12194,12222,12206,12248,12245,12251,32309,91,15,31,1497,-16644,1056,0,0,0,17.851518869400024
1,31604,30564,30476,30084,30944,-119,-252,16772,-1,0,0,17.881696701049805,0,12214,12215,12239,12208,12222,12222,12222,12251,32257,25,33,62,1497,-16644,1056,0,0,0,17.881696701049805
1,31452,30528,30524,30112,30936,-119,-252,16772,-1,0,0,17.913611888885498,0,12268,12249,12318,12282,12215,12244,12227,12215,32482,142,62,104,1497,-16644,1056,0,0,0,17.913611888885498
1,31548,30516,30452,30072,30992,-119,-252,16772,-1,0,0,17.947934865951538,0,12223,12250,12260,12268,12268,12248,12257,12256,32493,53,36,38,1497,-16644,1056,0,0,0,17.947934865951538
1,31548,30592,30464,30100,31072,-119,-252,16772,-1,0,0,17.97529625892639,0,12232,12252,12239,12240,12230,12224,12226,12231,32337,42,5,17,1497,-16644,1056,0,0,0,17.97529625892639
1,31492,30552,30448,30004,30984,-119,-252,16772,-1,0,0,18.003494262695312,0,12256,12255,12258,12223,12232,12261,12252,12269,32470,60,32,42,1497,-16644,1056,0,0,0,18.003494262695312
1,31532,30552,30524,30112,31012,-119,-252,16772,-1,0,0,18.032193422317505,0,12237,12246,12238,12266,12251,12271,12272,12288,32533,69,43,11,1497,-16644,1056,0,0,0,18.032193422317505
1,31528,30536,30540,30056,30952,-119,-252,16772,-1,0,0,18.060597896575928,0,12234,12223,12238,12227,12269,12222,12230,12240,32347,25,41,47,1497,-16644,1056,0,0,0,18.060597896575928
1,31476,30496,30524,30072,30972,-119,-252,16772,-1,0,0,18.088111877441406,0,12244,12261,12163,12173,12238,12254,12226,12189,32212,72,179,57,1497,-16644,1056,0,0,0,18.088111877441406
1,31512,30544,30492,30080,30972,-119,-252,16772,-1,0,0,18.116570949554443,0,12184,12214,12232,12226,12207,12231,12233,12217,32207,41,74,6,1497,-16644,1056,0,0,0,18.116570949554443
1,31484,30556,30520,30116,30964,-119,-252,16772,-1,0,0,18.14432168006897,0,12232,12253,12283,12243,12230,12249,12253,12236,32443,37,77,22,1497,-16644,1056,0,0,0,18.14432168006897
1,31504,30496,30488,30104,31096,-119,-252,16772,-1,0,0,18.172847032546997,0,12202,12245,12252,12263,12233,12256,12240,12231,32385,67,57,2,1497,-16644,1056,0,0,0,18.172847032546997
1,31504,30588,30496,30072,31016,-119,-252,16772,-1,0,0,18.199930429458618,0,12216,12215,12237,12225,12191,12226,12251,12212,32237,14,81,44,1497,-16644,1056,0,0,0,18.199930429458618
1,31536,30552,30508,30036,30944,-119,-252,16772,-1,0,0,18.22852087020874,0,12262,12232,12218,12204,12228,12232,12202,12192,32234,35,97,43,1497,-16644,1056,0,0,0,18.22852087020874
1,31456,30528,30500,30048,30988,-119,-252,16772,-1,0,0,18.255830764770508,0,12194,12215,12214,12226,12231,12229,12231,12203,32207,64,25,25,1497,-16644,1056,0,0,0,18.255830764770508
1,31520,30488,30468,30112,30988,-119,-252,16772,-1,0,0,18.28127670288086,0,12184,12198,12211,12231,12235,12236,12231,12259,32248,88,60,51,1497,-16644,1056,0,0,0,18.28127670288086
1,31444,30584,30496,30040,30940,-119,-252,16772,-1,0,0,18.312998294830322,0,12213,12208,12146,12127,12201,12206,12195,12204,31964,122,110,44,1497,-16644,1056,0,0,0,18.312998294830322
1,31452,30512,30560,30088,30960,-119,-252,16772,-1,0,0,18.33964514732361,0,12236,12223,12214,12191,12206,12210,12208,12197,32149,44,49,16,1497,-16644,1056,0,0,0,18.33964514732361
1,31540,30548,30488,30060,31060,-119,-252,16772,-1,0,0,18.371467113494873,0,12178,12175,12224,12163,12178,12225,12229,12232,32068,90,97,80,1497,-16644,1056,0,0,0,18.371467113494873
1,31480,30532,30476,30064,30920,-119,-252,16772,-1,0,0,18.398664712905884,0,12227,12210,12196,12192,12208,12212,12214,12194,32117,28,43,24,1497,-16644,1056,0,0,0,18.398664712905884
1,31496,30588,30512,30084,30964,-119,-252,16772,-1,0,0,18.436206102371216,0,12231,12213,12189,12142,12160,12199,12222,12216,32036,153,57,12,1497,-16644,1056,0,0,0,18.436206102371216
1,31492,30544,30480,30108,31056,-119,-252,16772,-1,0,0,18.46829605102539,0,12221,12230,12172,12144,12165,12222,12181,12203,32001,112,110,28,1497,-16644,1056,0,0,0,18.46829605102539
1,31512,30600,30468,30000,30984,-119,-252,16772,-1,0,0,18.495350122451782,0,12153,12212,12195,12201,12212,12242,12212,12216,32107,85,55,50,1497,-16644,1056,0,0,0,18.495350122451782
1,31488,30556,30472,30132,31000,-119,-252,16772,-1,0,0,18.527041912078857,0,12246,12250,12217,12298,12271,12259,12245,12247,32497,67,65,60,1497,-16644,1056,0,0,0,18.527041912078857
1,31504,30564,30512,30092,31000,-119,-252,16772,-1,0,0,18.56019639968872,0,12205,12225,12203,12222,12267,12260,12224,12222,32292,98,60,37,1497,-16644,1056,0,0,0,18.56019639968872
1,31472,30492,30504,30016,30892,-119,-252,16772,-1,0,0,18.596457719802856,0,12233,12225,12235,12222,12210,12223,12237,12215,32264,19,31,27,1497,-16644,1056,0,0,0,18.596457719802856
1,31516,30556,30508,30112,31016,-119,-252,16772,-1,0,0,18.628292083740234,0,12218,12233,12199,12208,12215,12248,12223,12238,32246,57,36,10,1497,-16644,1056,0,0,0,18.628292083740234
1,31512,30544,30456,30088,31004,-119,-252,16772,-1,0,0,18.660914659500122,0,12204,12244,12243,12286,12274,12230,12222,12235,32402,117,48,50,1497,-16644,1056,0,0,0,18.660914659500122
1,31524,30528,30500,30076,30988,-119,-252,16772,-1,0,0,18.69019889831543,0,12292,12287,12232,12224,12243,12244,12243,12231,32459,85,96,38,1497,-16644,1056,0,0,0,18.69019889831543
1,31524,30488,30524,30100,31008,-119,-252,16772,-1,0,0,18.71666145324707,0,12181,12212,12207,12210,12210,12248,12248,12178,32158,88,96,42,1497,-16644,1056,0,0,0,18.71666145324707
1,31496,30516,30552,30044,30940,-119,-252,16772,-1,0,0,18.744467973709106,0,12186,12175,12135,12187,12190,12164,12189,12194,31884,51,66,59,1497,-16644,1056,0,0,0,18.744467973709106
1,31448,30500,30472,30040,30948,-119,-252,16772,-1,0,0,18.77305269241333,0,12235,12218,12220,12217,12227,12224,12214,12177,32196,38,55,44,1497,-16644,1056,0,0,0,18.77305269241333
1,31492,30500,30456,30024,30968,-119,-252,16772,-1,0,0,18.800524711608887,0,12184,12197,12153,12220,12244,12224,12238,12226,32150,131,44,76,1497,-16644,1056,0,0,0,18.800524711608887
1,31464,30468,30512,30060,30960,-119,-252,16772,-1,0,0,18.826678037643433,0,12224,12221,12218,12245,12254,12237,12224,12249,32336,43,50,23,1497,-16644,1056,0,0,0,18.826678037643433
1,31452,30528,30424,30080,30988,-119,-252,16772,-1,0,0,18.854600429534912,0,12213,12231,12221,12216,12239,12239,12212,12208,32243,38,49,17,1497,-16644,1056,0,0,0,18.854600429534912
1,31432,30508,30468,30060,30956,-119,-252,16772,-1,0,0,18.877635717391968,0,12209,12202,12208,12200,12192,12198,12216,12197,32086,17,23,20,1497,-16644,1056,0,0,0,18.877635717391968
1,31436,30504,30504,30040,30956,-119,-252,16772,-1,0,0,18.907272815704346,0,12203,12218,12209,12202,12213,12194,12201,12153,32057,65,57,44,1497,-16644,1056,0,0,0,18.907272815704346
1,31456,30568,30448,30060,30972,-119,-252,16772,-1,0,0,18.936119556427002,0,12181,12207,12184,12204,12224,12253,12234,12238,32188,118,22,35,1497,-16644,1056,0,0,0,18.936119556427002
1,31452,30496,30448,30060,30984,-119,-252,16772,-1,0,0,18.9637553691864,0,12173,12214,12221,12231,12228,12213,12241,12128,32113,137,91,95,1497,-16644,1056,0,0,0,18.9637553691864
1,31508,30496,30544,30096,30948,-119,-252,16772,-1,0,0,18.990849018096924,0,12152,12195,12183,12185,12199,12194,12208,12204,31984,50,40,62,1497,-16644,1056,0,0,0,18.990849018096924
1,31540,30500,30492,30072,30980,-119,-252,16772,-1,0,0,19.01768445968628,0,12166,12208,12219,12245,12210,12193,12192,12190,32087,105,48,27,1497,-16644,1056,0,0,0,19.01768445968628
1,31480,30548,30532,30076,31016,-119,-252,16772,-1,0,0,19.044493675231934,0,12198,12188,12207,12193,12200,12232,12204,12157,32042,58,71,55,1497,-16644,1056,0,0,0,19.044493675231934
1,31468,30560,30480,30068,30972,-119,-252,16772,-1,0,0,19.065730333328247,0,12259,12245,12253,12291,12240,12230,12217,12216,32415,102,43,67,1497,-16644,1056,0,0,0,19.065730333328247
1,31512,30508,30500,30056,31008,-119,-252,16772,-1,0,0,19.09137225151062,0,12208,12228,12209,12208,12216,12223,12192,12203,32151,25,46,12,1497,-16644,1056,0,0,0,19.09137225151062
1,31540,30524,30472,30084,30972,-119,-252,16772,-1,0,0,19.117923736572266,0,12167,12193,12208,12197,12186,12180,12191,12073,31859,149,112,99,1497,-16644,1056,0,0,0,19.117923736572266
1,31504,30488,30452,30044,30996,-119,-252,16772,-1,0,0,19.145829439163208,0,12146,12210,12158,12160,12208,12184,12216,12236,31981,93,20,136,1497,-16644,1056,0,0,0,19.145829439163208
1,31528,30564,30544,30072,31016,-119,-252,16772,-1,0,0,19.175657510757446,0,12265,12239,12212,12244,12238,12231,12227,12236,32356,27,64,37,1497,-16644,1056,0,0,0,19.175657510757446
1,31600,30612,30468,30088,31052,-119,-252,16772,-1,0,0,19.205520391464233,0,12221,12256,12285,12295,12234,12231,12271,12246,32503,72,114,38,1497,-16644,1056,0,0,0,19.205520391464233
1,31520,30596,30572,30116,31000,-119,-252,16772,-1,0,0,19.23228931427002,0,12280,12268,12300,12297,12263,12238,12262,12262,32633,85,56,22,1497,-16644,1056,0,0,0,19.23228931427002
1,31536,30524,30524,30060,30952,-119,-252,16772,-1,0,0,19.26177716255188,0,12290,12336,12242,12233,12243,12259,12255,12254,32576,119,113,57,1497,-16644,1056,0,0,0,19.26177716255188
1,31460,30544,30468,30072,30960,-119,-252,16772,-1,0,0,19.28939652442932,0,12253,12247,12280,12263,12257,12278,12263,12265,32570,25,33,43,1497,-16644,1056,0,0,0,19.28939652442932
1,31484,30548,30480,30152,30948,-119,-252,16772,-1,0,0,19.31074333190918,0,12302,12229,12220,12264,12239,12232,12221,12241,32412,46,109,82,1497,-16644,1056,0,0,0,19.31074333190918
1,31452,30504,30460,30136,31020,-119,-252,16772,-1,0,0,19.339725971221924,0,12203,12222,12152,12175,12235,12242,12238,12251,32181,154,61,73,1497,-16644,1056,0,0,0,19.339725971221924
1,31480,30536,30472,30056,30928,-119,-252,16772,-1,0,0,19.364187240600586,0,12236,12233,12217,12206,12195,12207,12237,12285,32280,128,55,37,1497,-16644,1056,0,0,0,19.364187240600586
1,31484,30548,30464,30020,30920,-119,-252,16772,-1,0,0,19.39526653289795,0,12187,12190,12199,12216,12250,12231,12224,12226,32187,104,25,42,1497,-16644,1056,0,0,0,19.39526653289795
1,31528,30584,30504,30168,30996,-119,-252,16772,-1,0,0,19.421775341033936,0,12179,12192,12196,12203,12202,12230,12228,12226,32120,82,43,16,1497,-16644,1056,0,0,0,19.421775341033936
1,31512,30492,30480,30068,30916,-119,-252,16772,-1,0,0,19.448201894760132,0,12157,12199,12207,12212,12209,12178,12218,12183,32027,62,61,65,1497,-16644,1056,0,0,0,19.448201894760132
1,31508,30528,30464,30092,30956,-119,-252,16772,-1,0,0,19.472650051116943,0,12138,12220,12250,12186,12214,12223,12213,12215,32123,59,118,111,1497,-16644,1056,0,0,0,19.472650051116943
1,31508,30480,30452,30076,31040,-119,-252,16772,-1,0,0,19.514440059661865,0,12257,12290,12295,12286,12273,12246,12263,12237,32611,99,30,35,1497,-16644,1056,0,0,0,19.514440059661865
1,31476,30464,30472,30064,30960,-119,-252,16772,-1,0,0,19.547149419784546,0,12231,12234,12243,12217,12212,12194,12207,12223,32225,79,13,18,1497,-16644,1056,0,0,0,19.547149419784546
1,31528,30528,30448,30048,31028,-119,-252,16772,-1,0,0,19.58562660217285,0,12226,12249,12267,12227,12241,12267,12245,12201,32386,53,98,22,1497,-16644,1056,0,0,0,19.58562660217285
1,31544,30564,30556,30040,30996,-119,-252,16772,-1,0,0,19.613248109817505,0,12186,12186,12152,12269,12206,12204,12221,12199,32087,88,80,113,1497,-16644,1056,0,0,0,19.613248109817505
1,31476,30544,30556,30088,31004,-119,-252,16772,-1,0,0,19.63973879814148,0,12241,12235,12225,12251,12246,12251,12201,12204,32318,67,68,39,1497,-16644,1056,0,0,0,19.63973879814148
1,31468,30580,30484,30080,31048,-119,-252,16772,-1,0,0,19.668733835220337,0,12191,12154,12156,12174,12198,12248,12223,12233,32041,178,11,44,1497,-16644,1056,0,0,0,19.668733835220337
1,31492,30504,30536,30072,30956,-119,-252,16772,-1,0,0,19.702445030212402,0,12230,12197,12228,12238,12235,12235,12212,12241,32280,32,53,49,1497,-16644,1056,0,0,0,19.702445030212402
1,31476,30540,30500,30144,30996,-119,-252,16772,-1,0,0,19.738993883132935,0,12292,12255,12194,12225,12204,12243,12206,12211,32294,86,114,94,1497,-16644,1056,0,0,0,19.738993883132935
1,31472,30500,30492,30052,31000,-119,-252,16772,-1,0,0,19.772751092910767,0,12233,12247,12200,12219,12214,12248,12260,12239,32323,81,39,45,1497,-16644,1056,0,0,0,19.772751092910767
1,31464,30548,30432,30080,31016,-119,-252,16772,-1,0,0,19.80054807662964,0,12273,12278,12284,12243,12279,12285,12280,12276,32661,27,45,40,1497,-16644,1056,0,0,0,19.80054807662964
1,31488,30496,30468,30052,30972,-119,-252,16772,-1,0,0,19.828481912612915,0,12220,12239,12251,12247,12252,12242,12261,12262,32437,32,48,40,1497,-16644,1056,0,0,0,19.828481912612915
1,31496,30508,30544,30104,30976,-119,-252,16772,-1,0,0,19.859168767929077,0,12270,12280,12253,12226,12244,12232,12227,12246,32441,87,52,22,1497,-16644,1056,0,0,0,19.859168767929077
1,31440,30472,30504,30056,30988,-119,-252,16772,-1,0,0,19.88775610923767,0,12270,12276,12227,12221,12224,12256,12263,12229,32430,71,82,51,1497,-16644,1056,0,0,0,19.88775610923767
1,31484,30496,30500,30056,30904,-119,-252,16772,-1,0,0,19.918911695480347,0,12210,12268,12204,12207,12245,12217,12271,12292,32378,109,24,138,1497,-16644,1056,0,0,0,19.918911695480347
1,31444,30480,30452,30068,30960,-119,-252,16772,-1,0,0,19.945952892303467,0,12251,12254,12239,12266,12225,12237,12253,12255,32444,30,34,40,1497,-16644,1056,0,0,0,19.945952892303467
1,31440,30460,30444,30076,30936,-119,-252,16772,-1,0,0,19.973825693130493,0,12253,12280,12255,12275,12252,12235,12273,12238,32524,40,23,76,1497,-16644,1056,0,0,0,19.973825693130493
1,31532,30444,30420,30100,30980,-119,-252,16772,-1,0,0,20.000386714935303,0,12281,12279,12281,12283,12276,12273,12275,12295,32707,17,26,12,1497,-16644,1056,0,0,0,20.000386714935303
