uLabel,h1,h2,h3,h4,h5,ax,ay,az,uL dev_yaw,uL dev_pitch,uL dev_roll,uL Timestamp,uMyo1,uM1 d1,uM1 d2,uM1 d3,uM1 d4,uM1 d5,uM1 d6,uM1 d7,uM1 ds0,uM1 ds1,uM1 ds2,uM1 ds3,uM1 ax,uM1 ay,uM1 az,uM1 dev_yaw,uM1 dev_pitch,uM1 dev_roll,uM1 Timestamp,uMyo2,uM2 d1,uM2 d2,uM2 d3,uM2 d4,uM2 d5,uM2 d6,uM2 d7,uM2 ds0,uM2 ds1,uM2 ds2,uM2 ds3,uM2 ax,uM2 ay,uM2 az,uM2 dev_yaw,uM2 dev_pitch,uM2 dev_roll,uM2 Timestamp,uMyo3,uM3 d1,uM3 d2,uM3 d3,uM3 d4,uM3 d5,uM3 d6,uM3 d7,uM3 ds0,uM3 ds1,uM3 ds2,uM3 ds3,uM3 ax,uM3 ay,uM3 az,uM3 dev_yaw,uM3 dev_pitch,uM3 dev_roll,uM3 Timestamp,uMyo4,uM4 d1,uM4 d2,uM4 d3,,,,,,,,,,,,,,,,,,,,,,,,,,,,,,,,,,,,,,,,,,,,,,,,,,,,,,,,,,,,,,,,,,,,,,,,,,,,,,,,,,,,,,,,,,,,,,,,,,,
1,31528,30560,30588,30080,31060,1206,16411,-1529,-2356,0,-713,1709863196.9501357,0,17480,17492,17460,17457,17457,17476,17506,17519,8775,110,30,34,-6369,-14403,6190,0,0,0,1709863196.9559875,1,17561,17555,17530,17511,17519,17526,17527,17526,9183,74,49,12,287,-15828,5083,0,0,0,1709863196.9559875,,,,,,,,,,,,,,,,,,,,,,,,,,,,,,,,,,,,,,,,,,,,,,,,,,,,,,,,,,,,,,,,,,,,,,,,,,,,,,,,,,,,,,,,,,,,,,,,,,,,,,,,,,,,,,,,,,,,,,,,
1,31500,30496,30568,30048,31040,448,17357,-1029,-2361,0,-717,1709863197.0025659,0,17623,17626,17615,17631,17713,17798,17838,17846,10618,500,128,130,-4475,-14192,6613,0,0,0,1709863197.0185783,1,17557,17551,17533,17521,17528,17534,17520,17534,9206,52,43,12,1445,-15489,4023,0,0,0,1709863197.0185783,2,12479,12503,12497,12489,12495,12505,12510,12493,34435,22,42,19,-2538,15905,-173,0,0,0,1709863197.0185783,,,,,,,,,,,,,,,,,,,,,,,,,,,,,,,,,,,,,,,,,,,,,,,,,,,,,,,,,,,,,,,,,,,,,,,,,,,,,,,,,,,,,,,,,,,,,,,,,,,,
1,31528,30592,30556,30188,31008,2311,16603,-2664,-2385,0,-740,1709863197.0988538,0,18156,18187,18242,18254,18234,18217,18192,18148,14558,202,44,18,-5663,-14538,6087,0,0,0,1709863197.1143906,1,17552,17558,17557,17522,17542,17558,17584,17601,9402,105,47,54,896,-16017,4953,0,0,0,1709863197.1143906,2,12536,12544,12547,12562,12571,12559,12562,12549,34894,57,8,20,-2865,16303,-864,0,0,0,1709863197.1143906,,,,,,,,,,,,,,,,,,,,,,,,,,,,,,,,,,,,,,,,,,,,,,,,,,,,,,,,,,,,,,,,,,,,,,,,,,,,,,,,,,,,,,,,,,,,,,,,,,,,
1,31508,30540,30528,30140,31008,1595,16543,-2123,-2373,0,-727,1709863197.1970043,0,18528,18538,18530,18514,18562,18615,18669,18652,17536,291,109,78,-5749,-14401,7251,0,0,0,1709863197.2122278,1,17782,17780,17764,17782,17784,17770,17778,17781,11149,7,27,23,1015,-15728,4356,0,0,0,1709863197.2122278,2,12578,12572,12569,12576,12565,12546,12527,12552,34949,78,48,13,-1836,16097,-635,0,0,0,1709863197.2122278,,,,,,,,,,,,,,,,,,,,,,,,,,,,,,,,,,,,,,,,,,,,,,,,,,,,,,,,,,,,,,,,,,,,,,,,,,,,,,,,,,,,,,,,,,,,,,,,,,,,
1,31480,30520,30520,30100,30996,2453,15676,-2532,-2387,0,-737,1709863197.2977962,0,18398,18389,18359,18377,18400,18401,18402,18399,16053,67,39,21,-6011,-14266,6985,0,0,0,1709863197.313577,1,17869,17788,17788,17851,17837,17824,17816,17846,11547,50,132,61,1379,-15966,4797,0,0,0,1709863197.313577,2,12638,12658,12612,12551,12542,12578,12558,12510,35111,186,175,75,-688,15774,-930,0,0,0,1709863197.313577,,,,,,,,,,,,,,,,,,,,,,,,,,,,,,,,,,,,,,,,,,,,,,,,,,,,,,,,,,,,,,,,,,,,,,,,,,,,,,,,,,,,,,,,,,,,,,,,,,,,
1,29328,30188,30604,30168,31036,4081,13570,-2545,-2366,0,-714,1709863197.4088647,0,17810,17855,17904,17881,17879,17962,18050,18134,12403,402,330,203,-5636,-13751,6185,0,0,0,1709863197.4245725,1,18142,18124,18114,18114,18172,18298,18391,18377,14660,586,203,98,502,-15274,4496,0,0,0,1709863197.4245725,2,12487,12617,12560,12468,12362,12283,12266,12287,33794,698,146,72,-2688,16524,243,0,0,0,1709863197.4245725,,,,,,,,,,,,,,,,,,,,,,,,,,,,,,,,,,,,,,,,,,,,,,,,,,,,,,,,,,,,,,,,,,,,,,,,,,,,,,,,,,,,,,,,,,,,,,,,,,,,
1,28872,29608,30648,30160,31064,3464,16045,-3935,-2370,0,-718,1709863197.516278,0,17372,17388,17419,17452,17480,17544,17562,17527,8672,348,137,54,-6496,-15014,6227,0,0,0,1709863197.5322304,1,18399,18408,18387,18351,18282,18235,18249,18251,15490,371,60,85,1008,-16010,5655,0,0,0,1709863197.5322304,2,12692,12766,12787,12659,12358,12153,12228,12318,34424,1341,67,182,-2752,16566,-683,0,0,0,1709863197.5322304,,,,,,,,,,,,,,,,,,,,,,,,,,,,,,,,,,,,,,,,,,,,,,,,,,,,,,,,,,,,,,,,,,,,,,,,,,,,,,,,,,,,,,,,,,,,,,,,,,,,
1,31516,29844,30624,30152,31092,266,15208,-1480,-2348,0,-694,1709863197.6168783,0,17741,17753,17775,17778,17663,17534,17439,17397,10008,761,220,211,-5141,-13950,6418,0,0,0,1709863197.6340015,1,18743,18761,18748,18696,18575,18486,18435,18426,17798,719,183,179,870,-15051,4664,0,0,0,1709863197.6340015,2,12296,11958,11839,11849,11934,12231,12838,13260,32669,2481,1022,482,-1578,16116,-2583,0,0,0,1709863197.6340015,,,,,,,,,,,,,,,,,,,,,,,,,,,,,,,,,,,,,,,,,,,,,,,,,,,,,,,,,,,,,,,,,,,,,,,,,,,,,,,,,,,,,,,,,,,,,,,,,,,,
1,31820,26004,30580,30172,31100,1146,15847,-814,-2334,0,-678,1709863197.7213063,0,18143,18325,18228,18000,17859,17798,17850,17819,12950,1025,313,128,-3188,-14044,6822,0,0,0,1709863197.7370064,1,18159,18292,18325,18307,18355,18462,18543,18480,15851,499,355,199,2379,-15019,3504,0,0,0,1709863197.7370064,2,13015,12227,11710,11885,12177,12283,12089,11821,31670,840,1608,999,-1342,16510,-930,0,0,0,1709863197.7370064,,,,,,,,,,,,,,,,,,,,,,,,,,,,,,,,,,,,,,,,,,,,,,,,,,,,,,,,,,,,,,,,,,,,,,,,,,,,,,,,,,,,,,,,,,,,,,,,,,,,
1,31700,26020,30548,30116,30972,2736,18453,-4696,-2352,0,-692,1709863197.8290775,0,18225,18163,18135,18150,18165,18181,18189,18168,14304,99,70,66,-4407,-15048,6760,0,0,0,1709863197.8443868,1,18011,18030,18042,17999,17994,17967,17943,17957,12871,176,45,24,2396,-16792,4631,0,0,0,1709863197.8443868,2,12375,12381,12431,12437,12484,12580,12634,12615,34401,485,225,113,-2463,17070,-1650,0,0,0,1709863197.8443868,,,,,,,,,,,,,,,,,,,,,,,,,,,,,,,,,,,,,,,,,,,,,,,,,,,,,,,,,,,,,,,,,,,,,,,,,,,,,,,,,,,,,,,,,,,,,,,,,,,,
1,31596,30252,30192,30148,31084,1770,14790,-1131,-2347,0,-684,1709863197.937136,0,18614,18537,18556,18549,18525,18526,18520,18542,17297,103,68,89,-5440,-13999,6161,0,0,0,1709863197.956169,1,17790,17810,17808,17760,17646,17586,17545,17585,10458,573,97,111,2346,-15424,4008,0,0,0,1709863197.956169,2,12491,12518,12526,12518,12464,12385,12316,12273,33955,480,159,120,-1364,15251,-1873,0,0,0,1709863197.956169,,,,,,,,,,,,,,,,,,,,,,,,,,,,,,,,,,,,,,,,,,,,,,,,,,,,,,,,,,,,,,,,,,,,,,,,,,,,,,,,,,,,,,,,,,,,,,,,,,,,
1,31540,30564,26856,30240,31008,1808,16944,-2365,-2361,0,-698,1709863198.046171,0,18339,18404,18405,18466,18545,18494,18365,18249,16195,442,215,51,-4559,-13668,6741,0,0,0,1709863198.0609663,1,17053,17088,17154,17097,17092,17137,17175,17151,5875,100,185,67,1914,-15754,4318,0,0,0,1709863198.0609663,2,12325,12314,12330,12362,12384,12371,12333,12312,33195,134,47,16,-1634,16616,-568,0,0,0,1709863198.0609663,,,,,,,,,,,,,,,,,,,,,,,,,,,,,,,,,,,,,,,,,,,,,,,,,,,,,,,,,,,,,,,,,,,,,,,,,,,,,,,,,,,,,,,,,,,,,,,,,,,,
1,31548,30764,26532,30240,30976,2692,15981,-2359,-2378,0,-710,1709863198.1502614,0,17882,17898,17899,17873,17863,17869,17867,17858,11937,69,41,9,-4130,-14314,7806,0,0,0,1709863198.1667318,1,17306,17274,17251,17247,17247,17242,17250,17247,6992,84,56,42,3115,-16303,4236,0,0,0,1709863198.1667318,2,12355,12371,12353,12355,12361,12367,12366,12346,33338,10,37,22,-1504,17733,-1905,0,0,0,1709863198.1667318,,,,,,,,,,,,,,,,,,,,,,,,,,,,,,,,,,,,,,,,,,,,,,,,,,,,,,,,,,,,,,,,,,,,,,,,,,,,,,,,,,,,,,,,,,,,,,,,,,,,
1,31620,30552,30580,29668,31048,2122,14531,-330,-2374,0,-697,1709863198.2600324,0,17683,17661,17658,17639,17628,17631,17642,17562,10032,94,91,106,-3184,-13436,7420,0,0,0,1709863198.2745411,1,17602,17584,17557,17539,17522,17509,17503,17499,9243,171,84,61,3174,-15618,3829,0,0,0,1709863198.2745411,2,12399,12384,12362,12382,12391,12397,12406,12405,33589,71,22,18,-1375,16290,-1196,0,0,0,1709863198.2745411,,,,,,,,,,,,,,,,,,,,,,,,,,,,,,,,,,,,,,,,,,,,,,,,,,,,,,,,,,,,,,,,,,,,,,,,,,,,,,,,,,,,,,,,,,,,,,,,,,,,
1,31564,30580,30740,26420,30988,1703,17407,-2834,-2390,0,-717,1709863198.3689516,0,17642,17799,17925,17880,17767,17744,17761,17748,11194,346,289,77,-5800,-15033,6450,0,0,0,1709863198.3842964,1,18039,18045,18071,18091,18063,18034,18057,18028,13356,89,47,40,1748,-16456,4352,0,0,0,1709863198.3842964,2,12526,12516,12515,12523,12528,12528,12525,12507,34631,22,19,21,-1297,16554,-1227,0,0,0,1709863198.3842964,,,,,,,,,,,,,,,,,,,,,,,,,,,,,,,,,,,,,,,,,,,,,,,,,,,,,,,,,,,,,,,,,,,,,,,,,,,,,,,,,,,,,,,,,,,,,,,,,,,,
1,31552,30592,30732,28440,30952,3989,14635,-3490,-2445,0,-771,1709863198.476985,0,18060,18107,18207,18265,18277,18233,18183,18189,14449,360,125,94,-5491,-14494,6497,0,0,0,1709863198.4922678,1,18571,18565,18528,18493,18554,18620,18649,18652,17560,286,65,64,1564,-15960,4629,0,0,0,1709863198.4922678,2,12706,12714,12677,12700,12721,12736,12722,12702,36142,68,55,28,-2551,17068,-1016,0,0,0,1709863198.4922678,,,,,,,,,,,,,,,,,,,,,,,,,,,,,,,,,,,,,,,,,,,,,,,,,,,,,,,,,,,,,,,,,,,,,,,,,,,,,,,,,,,,,,,,,,,,,,,,,,,,
1,31580,30584,30732,26792,30552,919,16942,-1874,-2483,0,-807,1709863198.585822,0,18431,18414,18517,18641,18684,18685,18651,18612,17563,556,162,55,-4747,-13727,6745,0,0,0,1709863198.6017659,1,18630,18583,18555,18564,18604,18628,18625,18619,17736,144,60,18,1829,-15391,4389,0,0,0,1709863198.6017659,2,12611,12602,12613,12607,12599,12586,12573,12599,35254,59,30,23,-1608,15813,-781,0,0,0,1709863198.6017659,,,,,,,,,,,,,,,,,,,,,,,,,,,,,,,,,,,,,,,,,,,,,,,,,,,,,,,,,,,,,,,,,,,,,,,,,,,,,,,,,,,,,,,,,,,,,,,,,,,,
1,31564,30640,30620,28620,29488,2751,16001,-1797,-2496,0,-819,1709863198.696159,0,18241,18192,18188,18186,18192,18213,18240,18240,14620,127,21,25,-6386,-14254,5821,0,0,0,1709863198.7122846,1,18037,18037,18049,18061,18093,18106,18105,18088,13504,150,24,28,438,-15734,5420,0,0,0,1709863198.7122846,2,12429,12419,12413,12380,12350,12348,12354,12384,33541,169,12,28,-2465,16093,-749,0,0,0,1709863198.7122846,,,,,,,,,,,,,,,,,,,,,,,,,,,,,,,,,,,,,,,,,,,,,,,,,,,,,,,,,,,,,,,,,,,,,,,,,,,,,,,,,,,,,,,,,,,,,,,,,,,,
1,31556,30548,30564,29712,30820,848,17039,-2775,-2476,0,-792,1709863198.8087897,0,17739,17740,17754,17761,17761,17741,17747,17784,10955,11,64,44,-6930,-14706,6322,0,0,0,1709863198.8245637,1,17651,17610,17611,17603,17596,17596,17613,17603,9811,65,23,46,711,-16216,5355,0,0,0,1709863198.8245637,2,12233,12249,12255,12244,12247,12261,12241,12242,32435,24,28,21,-2621,16002,141,0,0,0,1709863198.8245637,,,,,,,,,,,,,,,,,,,,,,,,,,,,,,,,,,,,,,,,,,,,,,,,,,,,,,,,,,,,,,,,,,,,,,,,,,,,,,,,,,,,,,,,,,,,,,,,,,,,
1,31528,30648,30716,28596,30972,1354,17042,-3670,-2521,0,-838,1709863198.9145007,0,17555,17543,17504,17491,17517,17523,17519,17515,9095,71,77,13,-6002,-13530,5540,0,0,0,1709863198.931676,1,17326,17320,17336,17356,17411,17434,17448,17407,7966,262,47,40,570,-14769,5499,0,0,0,1709863198.931676,2,12154,12147,12166,12167,12164,12162,12158,12209,31791,33,67,56,-3637,14907,642,0,0,0,1709863198.931676,,,,,,,,,,,,,,,,,,,,,,,,,,,,,,,,,,,,,,,,,,,,,,,,,,,,,,,,,,,,,,,,,,,,,,,,,,,,,,,,,,,,,,,,,,,,,,,,,,,,
1,31552,30624,30764,28600,30980,1364,16755,-3823,-2554,0,-865,1709863199.0268652,0,17741,17734,17739,17750,17757,17754,17773,17767,10943,62,32,15,-6320,-14288,5601,0,0,0,1709863199.0426435,1,17621,17684,17751,17775,17797,17809,17819,17799,10983,302,172,111,376,-15514,6068,0,0,0,1709863199.0426435,2,12492,12503,12508,12503,12497,12512,12525,12530,34534,43,47,19,-3955,15884,626,0,0,0,1709863199.0426435,,,,,,,,,,,,,,,,,,,,,,,,,,,,,,,,,,,,,,,,,,,,,,,,,,,,,,,,,,,,,,,,,,,,,,,,,,,,,,,,,,,,,,,,,,,,,,,,,,,,
1,31536,30588,30640,27852,31076,2937,16338,-3185,-2548,0,-851,1709863199.1360905,0,18402,18420,18465,18482,18442,18389,18377,18373,16278,209,46,18,-5938,-13197,7532,0,0,0,1709863199.1518474,1,18319,18278,18235,18243,18294,18329,18368,18459,15453,351,95,107,1508,-15143,5443,0,0,0,1709863199.1518474,2,12770,12749,12707,12659,12623,12639,12695,12749,36054,289,21,5,-2736,15593,802,0,0,0,1709863199.1518474,,,,,,,,,,,,,,,,,,,,,,,,,,,,,,,,,,,,,,,,,,,,,,,,,,,,,,,,,,,,,,,,,,,,,,,,,,,,,,,,,,,,,,,,,,,,,,,,,,,,
1,31564,30604,28460,29004,30956,711,16374,-2697,-2519,0,-818,1709863199.2463715,0,18437,18514,18508,18453,18497,18546,18567,18548,16998,149,152,108,-5574,-14482,5100,0,0,0,1709863199.2631388,1,18385,18483,18614,18743,18722,18684,18630,18563,17752,607,195,67,379,-15189,5662,0,0,0,1709863199.2631388,2,12609,12592,12570,12562,12570,12576,12554,12535,35032,55,89,48,-3640,15421,578,0,0,0,1709863199.2631388,,,,,,,,,,,,,,,,,,,,,,,,,,,,,,,,,,,,,,,,,,,,,,,,,,,,,,,,,,,,,,,,,,,,,,,,,,,,,,,,,,,,,,,,,,,,,,,,,,,,
1,31608,30672,28360,29400,31008,1440,14647,-2449,-2511,0,-807,1709863199.3569934,0,18149,18133,18121,18147,18145,18138,18128,18124,14013,16,45,30,-6270,-13690,6660,0,0,0,1709863199.374526,1,18411,18391,18400,18417,18413,18398,18409,18394,16161,23,26,27,763,-15410,6079,0,0,0,1709863199.374526,2,12488,12507,12502,12497,12510,12522,12516,12477,34483,47,58,17,-2796,16296,-655,0,0,0,1709863199.374526,,,,,,,,,,,,,,,,,,,,,,,,,,,,,,,,,,,,,,,,,,,,,,,,,,,,,,,,,,,,,,,,,,,,,,,,,,,,,,,,,,,,,,,,,,,,,,,,,,,,
1,31536,30096,30632,29724,31016,3016,15656,-3704,-2464,0,-762,1709863199.4687529,0,17535,17568,17721,17785,17774,17742,17675,17620,10348,480,128,52,-7297,-14367,6304,0,0,0,1709863199.4841044,1,18058,18041,17998,18100,18152,18046,17923,17877,13123,342,309,103,-302,-15655,5421,0,0,0,1709863199.4841044,2,11907,11560,11697,11596,11676,12085,12544,12662,30191,2065,899,316,-4883,16222,1092,0,0,0,1709863199.4841044,,,,,,,,,,,,,,,,,,,,,,,,,,,,,,,,,,,,,,,,,,,,,,,,,,,,,,,,,,,,,,,,,,,,,,,,,,,,,,,,,,,,,,,,,,,,,,,,,,,,
1,31668,26748,30504,29824,31052,255,16459,-2980,-2452,0,-747,1709863199.5814352,0,17267,17223,17183,17167,17212,17301,17343,17329,6953,348,54,10,-6398,-14046,5623,0,0,0,1709863199.5977569,1,17452,17439,17492,17561,17629,17660,17633,17606,9400,446,80,70,122,-15096,5621,0,0,0,1709863199.5977569,2,12430,12453,12401,12376,12370,12379,12385,12388,33645,134,69,27,-2722,15567,131,0,0,0,1709863199.5977569,,,,,,,,,,,,,,,,,,,,,,,,,,,,,,,,,,,,,,,,,,,,,,,,,,,,,,,,,,,,,,,,,,,,,,,,,,,,,,,,,,,,,,,,,,,,,,,,,,,,
1,31572,29756,30520,29948,30968,397,15615,-2730,-2454,0,-748,1709863199.6915913,0,17855,17871,17886,17841,17780,17802,17841,17867,11671,160,98,16,-5113,-14563,6372,0,0,0,1709863199.7083313,1,17773,17794,17841,17907,17956,17965,17936,17870,11970,380,51,35,1826,-15685,5502,0,0,0,1709863199.7083313,2,12568,12590,12615,12634,12616,12604,12592,12603,35285,87,48,19,-4276,16410,-776,0,0,0,1709863199.7083313,,,,,,,,,,,,,,,,,,,,,,,,,,,,,,,,,,,,,,,,,,,,,,,,,,,,,,,,,,,,,,,,,,,,,,,,,,,,,,,,,,,,,,,,,,,,,,,,,,,,
1,30920,30584,30592,29840,30988,4255,14704,-4436,-2454,0,-742,1709863199.8037734,0,18410,18505,18541,18554,18744,18936,18931,18715,18264,964,361,145,-5641,-13640,5127,0,0,0,1709863199.8183877,1,18508,18285,18050,18016,18152,18143,18048,17908,14038,419,754,375,821,-14397,6166,0,0,0,1709863199.8183877,2,12623,12665,12684,12702,12668,12638,12693,12841,35978,114,254,176,-4122,15011,-946,0,0,0,1709863199.8183877,,,,,,,,,,,,,,,,,,,,,,,,,,,,,,,,,,,,,,,,,,,,,,,,,,,,,,,,,,,,,,,,,,,,,,,,,,,,,,,,,,,,,,,,,,,,,,,,,,,,
1,30356,29992,30668,29932,31076,2377,15259,-3812,-2448,0,-730,1709863199.9159374,0,18463,18449,18408,18369,18378,18413,18420,18441,16269,165,53,15,-6356,-14001,6313,0,0,0,1709863199.9324439,1,18348,18335,18319,18298,18335,18374,18360,18334,15631,94,77,19,-93,-15315,5772,0,0,0,1709863199.9324439,2,12551,12537,12527,12539,12543,12564,12577,12568,34870,90,11,12,-2440,16077,-20,0,0,0,1709863199.9324439,,,,,,,,,,,,,,,,,,,,,,,,,,,,,,,,,,,,,,,,,,,,,,,,,,,,,,,,,,,,,,,,,,,,,,,,,,,,,,,,,,,,,,,,,,,,,,,,,,,,
1,30556,30480,30536,29956,31036,3132,15461,-4021,-2476,0,-755,1709863200.034366,0,18121,18173,18155,18139,18134,18248,18322,18326,14546,358,226,93,-5569,-14419,6393,0,0,0,1709863200.0501564,1,18481,18502,18526,18549,18543,18550,18649,18759,17487,309,297,186,1295,-15434,5496,0,0,0,1709863200.0501564,2,12240,12567,12667,12295,11838,11786,12053,12154,32064,1527,649,63,-2896,16123,-1004,0,0,0,1709863200.0501564,,,,,,,,,,,,,,,,,,,,,,,,,,,,,,,,,,,,,,,,,,,,,,,,,,,,,,,,,,,,,,,,,,,,,,,,,,,,,,,,,,,,,,,,,,,,,,,,,,,,
1,31392,28628,30632,29972,31076,360,17316,-2729,-2454,0,-733,1709863200.1447587,0,17377,17584,17713,17697,17614,17524,17506,17532,9475,480,258,169,-5647,-14770,6262,0,0,0,1709863200.1600258,1,18286,18169,18135,18052,18019,18068,18070,18063,13790,369,157,187,2230,-15851,5739,0,0,0,1709863200.1600258,2,11997,11594,11883,12391,12581,12730,12876,12849,33364,2371,933,170,-2530,16788,-829,0,0,0,1709863200.1600258,,,,,,,,,,,,,,,,,,,,,,,,,,,,,,,,,,,,,,,,,,,,,,,,,,,,,,,,,,,,,,,,,,,,,,,,,,,,,,,,,,,,,,,,,,,,,,,,,,,,
1,31492,26544,30720,29940,31072,2027,15251,-3679,-2468,0,-743,1709863200.2510765,0,17454,17395,17343,17380,17454,17509,17563,17610,8636,470,86,85,-4815,-14506,6290,0,0,0,1709863200.265875,1,18069,18043,17974,17923,17890,17878,17892,17922,12519,356,120,72,2253,-15524,5144,0,0,0,1709863200.265875,2,12513,12523,12495,12477,12482,12497,12487,12506,34444,70,39,12,-4205,16260,-2019,0,0,0,1709863200.265875,,,,,,,,,,,,,,,,,,,,,,,,,,,,,,,,,,,,,,,,,,,,,,,,,,,,,,,,,,,,,,,,,,,,,,,,,,,,,,,,,,,,,,,,,,,,,,,,,,,,
1,31524,30672,30044,30048,31060,2550,13594,-2263,-2477,0,-745,1709863200.3521445,0,17636,17632,17549,17523,17595,17673,17715,17677,9928,327,110,47,-5635,-12830,7118,0,0,0,1709863200.3678417,1,17899,17846,17772,17791,17819,17836,17889,17927,11707,275,67,36,1157,-15236,5602,0,0,0,1709863200.3678417,2,12402,12417,12411,12374,12310,12230,12197,12242,33047,458,108,54,-126,16414,-2206,0,0,0,1709863200.3678417,,,,,,,,,,,,,,,,,,,,,,,,,,,,,,,,,,,,,,,,,,,,,,,,,,,,,,,,,,,,,,,,,,,,,,,,,,,,,,,,,,,,,,,,,,,,,,,,,,,,
1,31536,30656,27828,30136,31068,1400,15785,-2672,-2465,0,-728,1709863200.4604135,0,18163,18248,18236,18257,18342,18391,18375,18276,15216,367,149,94,-5813,-14376,7215,0,0,0,1709863200.477003,1,17626,17638,17637,17601,17576,17588,17595,17597,9786,115,41,17,1318,-16351,5783,0,0,0,1709863200.477003,2,12519,12529,12507,12488,12465,12445,12444,12445,34306,173,52,36,-3199,17190,-659,0,0,0,1709863200.477003,,,,,,,,,,,,,,,,,,,,,,,,,,,,,,,,,,,,,,,,,,,,,,,,,,,,,,,,,,,,,,,,,,,,,,,,,,,,,,,,,,,,,,,,,,,,,,,,,,,,
1,31640,30612,27508,30264,31104,2211,16066,-3395,-2471,0,-728,1709863200.5689697,0,18603,18589,18580,18579,18599,18631,18633,18619,17761,111,24,7,-5046,-14357,7915,0,0,0,1709863200.5841753,1,17809,17802,17797,17784,17773,17733,17724,17782,11132,148,68,25,2351,-15939,4745,0,0,0,1709863200.5841753,2,12525,12534,12510,12526,12524,12529,12541,12534,34686,34,3,30,-3192,16791,-1222,0,0,0,1709863200.5841753,,,,,,,,,,,,,,,,,,,,,,,,,,,,,,,,,,,,,,,,,,,,,,,,,,,,,,,,,,,,,,,,,,,,,,,,,,,,,,,,,,,,,,,,,,,,,,,,,,,,
1,31564,30572,30448,30056,31040,2161,15906,-2768,-2478,0,-731,1709863200.6734512,0,18315,18415,18489,18547,18541,18435,18332,18252,16254,569,61,37,-6609,-14153,6178,0,0,0,1709863200.695594,1,17917,17885,17827,17828,17870,17942,17980,17978,12155,319,29,19,39,-15412,5908,0,0,0,1709863200.695594,2,12449,12443,12461,12448,12429,12413,12401,12406,33914,111,16,29,-1679,16552,-129,0,0,0,1709863200.695594,,,,,,,,,,,,,,,,,,,,,,,,,,,,,,,,,,,,,,,,,,,,,,,,,,,,,,,,,,,,,,,,,,,,,,,,,,,,,,,,,,,,,,,,,,,,,,,,,,,,
1,31652,30564,30772,27640,31076,2903,16640,-4788,-2512,0,-767,1709863200.7921178,0,17884,17874,17890,17864,17846,17867,17878,17850,11881,42,46,43,-4944,-14787,4992,0,0,0,1709863200.8107564,1,18095,18028,18013,18076,18115,18124,18140,18155,13674,252,97,8,1126,-15570,5147,0,0,0,1709863200.8107564,2,12423,12430,12413,12419,12415,12400,12360,12373,33697,106,75,19,-4420,15693,1381,0,0,0,1709863200.8107564,,,,,,,,,,,,,,,,,,,,,,,,,,,,,,,,,,,,,,,,,,,,,,,,,,,,,,,,,,,,,,,,,,,,,,,,,,,,,,,,,,,,,,,,,,,,,,,,,,,,
1,31596,30560,30696,27224,30944,4150,15631,-5059,-2541,0,-791,1709863200.9092383,0,17467,17546,17630,17627,17563,17518,17508,17571,9358,215,172,98,-5691,-14265,5958,0,0,0,1709863200.9243987,1,18382,18416,18416,18396,18397,18399,18370,18373,16077,76,46,20,894,-15653,5160,0,0,0,1709863200.9243987,2,12494,12491,12481,12486,12494,12505,12497,12492,34403,30,20,5,-2200,16513,-838,0,0,0,1709863200.9243987,,,,,,,,,,,,,,,,,,,,,,,,,,,,,,,,,,,,,,,,,,,,,,,,,,,,,,,,,,,,,,,,,,,,,,,,,,,,,,,,,,,,,,,,,,,,,,,,,,,,
1,31600,30572,30664,28304,30544,2722,15783,-3649,-2557,0,-799,1709863201.0168936,0,17528,17545,17577,17581,17617,17632,17642,17657,9707,204,95,95,-5939,-14207,5863,0,0,0,1709863201.0326858,1,18529,18464,18414,18416,18448,18487,18534,18559,16779,289,37,4,972,-15618,5476,0,0,0,1709863201.0326858,2,12539,12558,12545,12563,12557,12547,12553,12548,34874,23,6,30,-3467,16025,179,0,0,0,1709863201.0326858,,,,,,,,,,,,,,,,,,,,,,,,,,,,,,,,,,,,,,,,,,,,,,,,,,,,,,,,,,,,,,,,,,,,,,,,,,,,,,,,,,,,,,,,,,,,,,,,,,,,
1,31620,30652,30676,29328,30532,1274,16766,-1313,-2538,0,-777,1709863201.120056,0,18038,18045,18022,18022,18053,18098,18072,18044,13322,109,77,7,-5945,-14103,5901,0,0,0,1709863201.136325,1,18337,18316,18311,18277,18267,18271,18271,18263,15241,122,51,48,1145,-15491,5493,0,0,0,1709863201.136325,2,12513,12521,12509,12509,12512,12519,12517,12510,34574,7,21,8,-3451,16151,-70,0,0,0,1709863201.136325,,,,,,,,,,,,,,,,,,,,,,,,,,,,,,,,,,,,,,,,,,,,,,,,,,,,,,,,,,,,,,,,,,,,,,,,,,,,,,,,,,,,,,,,,,,,,,,,,,,,
1,31596,30560,30548,29820,31160,-1145,20164,-877,-2517,0,-753,1709863201.2337034,0,18283,18328,18392,18421,18424,18406,18398,18400,15980,216,120,78,-6040,-14156,6312,0,0,0,1709863201.250068,1,17977,18036,18048,18045,18037,17980,17901,17867,12819,345,122,32,912,-15956,5467,0,0,0,1709863201.250068,2,12483,12457,12381,12338,12328,12328,12361,12385,33525,290,92,48,-2412,16957,-490,0,0,0,1709863201.250068,,,,,,,,,,,,,,,,,,,,,,,,,,,,,,,,,,,,,,,,,,,,,,,,,,,,,,,,,,,,,,,,,,,,,,,,,,,,,,,,,,,,,,,,,,,,,,,,,,,,
1,31560,30560,30796,27712,31036,153,17266,-3732,-2540,0,-772,1709863201.3505604,0,18399,18405,18404,18415,18439,18451,18478,18458,16377,143,47,39,-6889,-14460,5904,0,0,0,1709863201.3670847,1,17520,17608,17639,17614,17583,17556,17529,17511,9488,240,75,26,486,-15782,6029,0,0,0,1709863201.3670847,2,12386,12391,12375,12398,12404,12416,12420,12411,33665,76,5,20,-3378,16218,27,0,0,0,1709863201.3670847,,,,,,,,,,,,,,,,,,,,,,,,,,,,,,,,,,,,,,,,,,,,,,,,,,,,,,,,,,,,,,,,,,,,,,,,,,,,,,,,,,,,,,,,,,,,,,,,,,,,
1,31564,30556,30820,29256,30976,1570,16485,-2946,-2561,0,-784,1709863201.458852,0,18144,18205,18200,18185,18241,18304,18333,18278,14818,287,154,92,-6242,-14357,5296,0,0,0,1709863201.4741867,1,17612,17563,17491,17522,17552,17570,17626,17681,9545,302,84,50,-61,-15525,6027,0,0,0,1709863201.4741867,2,12452,12423,12395,12426,12445,12446,12417,12372,33839,47,110,75,-3050,15835,-203,0,0,0,1709863201.4741867,,,,,,,,,,,,,,,,,,,,,,,,,,,,,,,,,,,,,,,,,,,,,,,,,,,,,,,,,,,,,,,,,,,,,,,,,,,,,,,,,,,,,,,,,,,,,,,,,,,,
1,31544,30616,30740,26240,30996,3161,15142,-4439,-2548,0,-764,1709863201.5689504,0,18008,18050,18074,17992,17862,17710,17635,17650,11909,932,199,153,-6577,-13965,4734,0,0,0,1709863201.5835247,1,17675,17708,17739,17834,17905,17941,17987,18100,11817,635,320,274,-868,-14258,5989,0,0,0,1709863201.5835247,2,12393,12418,12434,12419,12407,12368,12321,12318,33542,225,66,22,-3331,15083,1018,0,0,0,1709863201.5835247,,,,,,,,,,,,,,,,,,,,,,,,,,,,,,,,,,,,,,,,,,,,,,,,,,,,,,,,,,,,,,,,,,,,,,,,,,,,,,,,,,,,,,,,,,,,,,,,,,,,
1,31608,30736,27188,27176,30980,2189,15447,-4173,-2512,0,-725,1709863201.6818655,0,17549,17412,17401,17494,17517,17486,17440,17411,8638,85,225,150,-6254,-13685,6173,0,0,0,1709863201.7029994,1,18320,18345,18378,18349,18276,18243,18217,18216,15272,327,23,66,4138,-15432,6249,0,0,0,1709863201.7029994,2,12511,12548,12568,12577,12561,12575,12571,12531,34906,102,68,16,-2065,16526,581,0,0,0,1709863201.7029994,,,,,,,,,,,,,,,,,,,,,,,,,,,,,,,,,,,,,,,,,,,,,,,,,,,,,,,,,,,,,,,,,,,,,,,,,,,,,,,,,,,,,,,,,,,,,,,,,,,,
1,31616,30596,29160,28908,31000,1708,16318,-1615,-2476,0,-679,1709863201.8026612,0,17629,17612,17642,17668,17663,17628,17619,17638,10027,74,72,13,-6238,-14405,6473,0,0,0,1709863201.818844,1,18600,18564,18560,18565,18536,18510,18513,18511,17287,138,63,70,140,-16390,5298,0,0,0,1709863201.818844,2,12054,12225,12439,12527,12459,12262,12096,12105,32631,954,146,107,-1707,16360,-166,0,0,0,1709863201.818844,,,,,,,,,,,,,,,,,,,,,,,,,,,,,,,,,,,,,,,,,,,,,,,,,,,,,,,,,,,,,,,,,,,,,,,,,,,,,,,,,,,,,,,,,,,,,,,,,,,,
1,31612,29792,30584,29560,31048,4051,16159,-3693,-2460,0,-657,1709863201.9133105,0,18363,18393,18433,18470,18509,18643,18504,18377,16620,429,199,104,-5386,-14517,6675,0,0,0,1709863201.928813,1,18677,18778,18831,18811,18753,18718,18580,18412,18488,656,273,179,511,-15955,5149,0,0,0,1709863201.928813,2,12692,12199,12118,12182,12113,12207,12299,12474,32748,873,461,379,-3276,16230,831,0,0,0,1709863201.928813,,,,,,,,,,,,,,,,,,,,,,,,,,,,,,,,,,,,,,,,,,,,,,,,,,,,,,,,,,,,,,,,,,,,,,,,,,,,,,,,,,,,,,,,,,,,,,,,,,,,
1,31724,26476,30668,29612,31056,2735,16069,-4092,-2423,0,-621,1709863202.0291271,0,18457,18470,18452,18386,18287,18250,18307,18347,15884,443,19,56,-6221,-14156,5145,0,0,0,1709863202.0442939,1,17845,17845,17872,17868,17840,17798,17797,17875,11668,111,101,57,832,-15317,5193,0,0,0,1709863202.0442939,2,12662,12532,12365,12280,12254,12311,12411,12525,33804,740,145,83,-2711,15616,283,0,0,0,1709863202.0442939,,,,,,,,,,,,,,,,,,,,,,,,,,,,,,,,,,,,,,,,,,,,,,,,,,,,,,,,,,,,,,,,,,,,,,,,,,,,,,,,,,,,,,,,,,,,,,,,,,,,
1,31672,27824,30800,29772,31068,3400,16247,-4170,-2423,0,-617,1709863202.1314342,0,18550,18591,18593,18572,18508,18427,18397,18335,16901,479,130,128,-5830,-14645,5124,0,0,0,1709863202.1469169,1,17501,17496,17521,17550,17585,17617,17640,17613,9451,278,90,44,588,-15377,5555,0,0,0,1709863202.1469169,2,12494,12501,12513,12519,12523,12541,12521,12490,34565,79,37,19,-4177,15837,1480,0,0,0,1709863202.1469169,,,,,,,,,,,,,,,,,,,,,,,,,,,,,,,,,,,,,,,,,,,,,,,,,,,,,,,,,,,,,,,,,,,,,,,,,,,,,,,,,,,,,,,,,,,,,,,,,,,,
1,31164,29988,30636,29812,31108,3296,16281,-2650,-2395,0,-591,1709863202.2390702,0,17827,17911,18007,17995,17934,17841,17798,17792,12033,449,56,20,-2634,-14419,5469,0,0,0,1709863202.2543929,1,17603,17794,17733,17600,17340,17179,17304,17442,8923,1138,116,132,1484,-14985,6170,0,0,0,1709863202.2543929,2,12332,12543,12603,12558,12490,12434,12451,12665,34540,153,338,345,-5283,15746,-374,0,0,0,1709863202.2543929,,,,,,,,,,,,,,,,,,,,,,,,,,,,,,,,,,,,,,,,,,,,,,,,,,,,,,,,,,,,,,,,,,,,,,,,,,,,,,,,,,,,,,,,,,,,,,,,,,,,
1,29672,29736,30712,29960,31060,2542,16559,-2229,-2387,0,-579,1709863202.345816,0,17588,17543,17497,17490,17469,17442,17459,17499,8915,222,101,49,-6648,-14360,5815,0,0,0,1709863202.3610988,1,17454,17566,17695,17717,17710,17741,17787,17817,10415,421,390,227,-550,-15820,5286,0,0,0,1709863202.3610988,2,12475,12360,12324,12334,12368,12391,12403,12420,33538,217,116,68,-1478,16506,167,0,0,0,1709863202.3610988,,,,,,,,,,,,,,,,,,,,,,,,,,,,,,,,,,,,,,,,,,,,,,,,,,,,,,,,,,,,,,,,,,,,,,,,,,,,,,,,,,,,,,,,,,,,,,,,,,,,
1,31228,30320,30572,29900,31084,1318,14847,-533,-2412,0,-601,1709863202.4473307,0,17699,17672,17620,17622,17686,17768,17764,17661,10420,241,157,72,-4432,-14694,6234,0,0,0,1709863202.4623444,1,18260,18300,18312,18301,18269,18314,18442,18562,15688,364,335,194,2002,-15920,5012,0,0,0,1709863202.4623444,2,12586,12691,12627,12491,12416,12530,12740,12617,35161,383,382,141,-3150,16063,91,0,0,0,1709863202.4623444,,,,,,,,,,,,,,,,,,,,,,,,,,,,,,,,,,,,,,,,,,,,,,,,,,,,,,,,,,,,,,,,,,,,,,,,,,,,,,,,,,,,,,,,,,,,,,,,,,,,
1,31660,28308,30684,29860,31084,3081,16783,-4322,-2421,0,-616,1709863202.5545437,0,17732,17697,17687,17753,17878,17947,17904,17701,11227,506,190,102,-2988,-14946,4657,0,0,0,1709863202.571337,1,18750,18696,18674,18642,18548,18455,18306,18259,17258,815,404,311,2544,-14417,4390,0,0,0,1709863202.571337,2,13044,12835,12290,12426,12553,12551,12536,12561,35260,799,868,401,-4834,13690,-574,0,0,0,1709863202.571337,,,,,,,,,,,,,,,,,,,,,,,,,,,,,,,,,,,,,,,,,,,,,,,,,,,,,,,,,,,,,,,,,,,,,,,,,,,,,,,,,,,,,,,,,,,,,,,,,,,,
1,31816,27092,30788,29860,31056,4737,16355,-5667,-2433,0,-622,1709863202.6678264,0,18329,18301,18255,18258,18296,18333,18348,18353,15401,198,31,11,-7005,-14801,6030,0,0,0,1709863202.6842194,1,18498,18522,18561,18556,18549,18535,18508,18498,17155,132,22,21,1043,-16721,5143,0,0,0,1709863202.6842194,2,12650,12658,12640,12636,12618,12619,12605,12613,35503,89,36,22,-1925,16954,-634,0,0,0,1709863202.6842194,,,,,,,,,,,,,,,,,,,,,,,,,,,,,,,,,,,,,,,,,,,,,,,,,,,,,,,,,,,,,,,,,,,,,,,,,,,,,,,,,,,,,,,,,,,,,,,,,,,,
1,31584,30168,30540,30028,31020,4495,13103,-3397,-2445,0,-628,1709863202.7833326,0,18558,18416,18348,18441,18499,18501,18490,18536,16717,277,227,53,-4984,-13785,6409,0,0,0,1709863202.8004496,1,18054,18093,18144,18178,18202,18232,18261,18253,14345,330,182,108,-824,-14861,4802,0,0,0,1709863202.8004496,2,12521,12494,12453,12444,12428,12383,12335,12389,33911,270,166,53,-5243,15526,912,0,0,0,1709863202.8004496,,,,,,,,,,,,,,,,,,,,,,,,,,,,,,,,,,,,,,,,,,,,,,,,,,,,,,,,,,,,,,,,,,,,,,,,,,,,,,,,,,,,,,,,,,,,,,,,,,,,
1,31576,30596,29372,30220,30996,1460,15735,-2458,-2443,0,-625,1709863202.8969054,0,18123,18117,18088,18065,18075,18080,18102,18115,13693,111,18,14,-7410,-14158,7104,0,0,0,1709863202.9117942,1,17692,17686,17703,17697,17662,17622,17608,17545,10143,249,78,108,1173,-16321,5020,0,0,0,1709863202.9117942,2,12374,12381,12390,12392,12358,12336,12348,12360,33403,99,35,14,526,17374,-1102,0,0,0,1709863202.9117942,,,,,,,,,,,,,,,,,,,,,,,,,,,,,,,,,,,,,,,,,,,,,,,,,,,,,,,,,,,,,,,,,,,,,,,,,,,,,,,,,,,,,,,,,,,,,,,,,,,,
1,31584,30740,28700,30288,31076,5401,13711,-4093,-2457,0,-629,1709863203.0103045,0,17838,17872,17875,17825,17781,17766,17780,17773,11438,227,53,25,-7387,-14002,5040,0,0,0,1709863203.0277963,1,17314,17322,17354,17376,17384,17396,17399,17399,7872,155,79,41,1522,-15778,5143,0,0,0,1709863203.0277963,2,12261,12277,12282,12298,12291,12274,12269,12259,32675,69,6,17,-2539,16061,-59,0,0,0,1709863203.0277963,,,,,,,,,,,,,,,,,,,,,,,,,,,,,,,,,,,,,,,,,,,,,,,,,,,,,,,,,,,,,,,,,,,,,,,,,,,,,,,,,,,,,,,,,,,,,,,,,,,,
1,31592,30656,29792,30176,31056,4210,15438,-2111,-2455,0,-624,1709863203.120416,0,17777,17705,17609,17511,17405,17400,17535,17682,9552,728,95,41,-3789,-14422,6390,0,0,0,1709863203.1377084,1,17709,17788,17820,17859,17807,17657,17568,17492,10628,659,158,121,1412,-15981,4722,0,0,0,1709863203.1377084,2,12373,12368,12349,12341,12304,12246,12274,12371,33090,225,111,39,-3530,16614,-693,0,0,0,1709863203.1377084,,,,,,,,,,,,,,,,,,,,,,,,,,,,,,,,,,,,,,,,,,,,,,,,,,,,,,,,,,,,,,,,,,,,,,,,,,,,,,,,,,,,,,,,,,,,,,,,,,,,
1,31576,30668,30644,27880,31040,4700,16119,-5670,-2475,0,-646,1709863203.2290504,0,18001,18012,17978,17915,17904,17955,17978,18046,12717,235,51,63,-6336,-14288,5213,0,0,0,1709863203.2442603,1,18077,18078,18057,18051,18044,18058,18106,18122,13521,129,55,33,429,-15558,5806,0,0,0,1709863203.2442603,2,12597,12573,12567,12584,12586,12590,12580,12559,35100,20,41,44,-2826,15818,-47,0,0,0,1709863203.2442603,,,,,,,,,,,,,,,,,,,,,,,,,,,,,,,,,,,,,,,,,,,,,,,,,,,,,,,,,,,,,,,,,,,,,,,,,,,,,,,,,,,,,,,,,,,,,,,,,,,,
1,31564,30640,30684,27544,31012,3132,15191,-2820,-2503,0,-662,1709863203.340203,0,18463,18516,18496,18455,18422,18318,18201,18169,15968,637,281,113,-4486,-13743,6074,0,0,0,1709863203.3567963,1,18565,18662,18722,18710,18671,18682,18677,18663,18280,166,165,64,856,-14742,5229,0,0,0,1709863203.3567963,2,12693,12706,12694,12666,12704,12734,12734,12746,36141,119,41,60,-3951,15525,138,0,0,0,1709863203.3567963,,,,,,,,,,,,,,,,,,,,,,,,,,,,,,,,,,,,,,,,,,,,,,,,,,,,,,,,,,,,,,,,,,,,,,,,,,,,,,,,,,,,,,,,,,,,,,,,,,,,
1,31532,30640,30720,27468,30564,2884,15295,655,-2515,0,-664,1709863203.4479244,0,18168,18178,18173,18187,18246,18367,18450,18433,15130,585,222,122,-6525,-14379,6821,0,0,0,1709863203.462541,1,18574,18562,18546,18476,18440,18480,18520,18581,17107,266,54,42,1999,-16104,5333,0,0,0,1709863203.462541,2,12668,12669,12637,12626,12610,12628,12629,12624,35555,93,48,37,-2242,16498,-1175,0,0,0,1709863203.462541,,,,,,,,,,,,,,,,,,,,,,,,,,,,,,,,,,,,,,,,,,,,,,,,,,,,,,,,,,,,,,,,,,,,,,,,,,,,,,,,,,,,,,,,,,,,,,,,,,,,
1,31604,30680,30720,28848,29648,5564,15176,-2888,-2533,0,-676,1709863203.554534,0,17996,18002,18003,18011,17985,17980,17966,17958,12829,90,17,36,-6175,-14239,6043,0,0,0,1709863203.5713437,1,18242,18235,18218,18222,18198,18173,18163,18153,14532,152,67,61,689,-15552,5460,0,0,0,1709863203.5713437,2,12420,12421,12428,12445,12436,12430,12439,12437,33920,30,32,11,-2685,16027,-700,0,0,0,1709863203.5713437,,,,,,,,,,,,,,,,,,,,,,,,,,,,,,,,,,,,,,,,,,,,,,,,,,,,,,,,,,,,,,,,,,,,,,,,,,,,,,,,,,,,,,,,,,,,,,,,,,,,
1,31544,30628,30588,29648,30900,1607,15648,-955,-2515,0,-655,1709863203.6601412,0,17497,17501,17554,17595,17592,17506,17478,17482,9133,234,90,11,-4720,-14210,6330,0,0,0,1709863203.6783402,1,17784,17779,17791,17724,17682,17633,17582,17622,10525,406,114,78,1847,-15617,5272,0,0,0,1709863203.6783402,2,12310,12314,12319,12325,12323,12306,12277,12304,32941,66,38,21,-3047,17110,-359,0,0,0,1709863203.6783402,,,,,,,,,,,,,,,,,,,,,,,,,,,,,,,,,,,,,,,,,,,,,,,,,,,,,,,,,,,,,,,,,,,,,,,,,,,,,,,,,,,,,,,,,,,,,,,,,,,,
1,31512,30616,30604,29648,30840,1921,16324,-5844,-2512,0,-655,1709863203.7743611,0,17506,17448,17394,17347,17321,17353,17446,17562,8305,426,108,47,-5937,-14248,4708,0,0,0,1709863203.791757,1,17433,17410,17428,17469,17472,17439,17457,17474,8510,77,96,22,937,-15260,5410,0,0,0,1709863203.791757,2,12354,12353,12317,12314,12302,12323,12308,12271,33006,74,96,74,-3017,15850,-579,0,0,0,1709863203.791757,,,,,,,,,,,,,,,,,,,,,,,,,,,,,,,,,,,,,,,,,,,,,,,,,,,,,,,,,,,,,,,,,,,,,,,,,,,,,,,,,,,,,,,,,,,,,,,,,,,,
1,31576,30660,30692,29532,29904,2219,15999,-1744,-2530,0,-668,1709863204,0,17967,17990,18057,18172,18271,18342,18370,18316,14413,802,245,161,-5367,-14026,5779,0,0,0,1709863203.9025872,1,17701,17698,17696,17712,17706,17705,17699,17699,10544,19,14,11,1004,-15691,5209,0,0,0,1709863203.9025872,2,12511,12504,12506,12522,12532,12553,12552,12562,34705,112,30,22,-3270,16621,-377,0,0,0,1709863203.9025872,,,,,,,,,,,,,,,,,,,,,,,,,,,,,,,,,,,,,,,,,,,,,,,,,,,,,,,,,,,,,,,,,,,,,,,,,,,,,,,,,,,,,,,,,,,,,,,,,,,,
1,31552,30628,30548,29804,31040,3520,15204,-1643,-2526,0,-665,1709863203.9945223,0,18871,18862,18792,18738,18652,18618,18603,18632,18696,539,168,134,-5421,-14441,5975,0,0,0,1709863204.0100915,1,18126,18027,18014,18052,18090,18044,17988,18017,13286,38,214,73,855,-15684,4986,0,0,0,1709863204.0100915,2,12664,12686,12678,12640,12593,12578,12587,12601,35490,228,24,25,-3577,16339,-214,0,0,0,1709863204.0100915,,,,,,,,,,,,,,,,,,,,,,,,,,,,,,,,,,,,,,,,,,,,,,,,,,,,,,,,,,,,,,,,,,,,,,,,,,,,,,,,,,,,,,,,,,,,,,,,,,,,
1,31540,30612,30616,27460,31008,2764,16483,-2530,-2534,0,-675,1709863204.1006227,0,18508,18497,18492,18528,18597,18622,18578,18437,17187,265,157,88,-6241,-13962,6183,0,0,0,1709863204.1159856,1,18319,18373,18437,18507,18492,18417,18396,18360,16229,328,80,49,1403,-15664,5305,0,0,0,1709863204.1159856,2,12608,12605,12579,12553,12525,12537,12498,12522,34890,186,87,57,-2759,16458,-903,0,0,0,1709863204.1159856,,,,,,,,,,,,,,,,,,,,,,,,,,,,,,,,,,,,,,,,,,,,,,,,,,,,,,,,,,,,,,,,,,,,,,,,,,,,,,,,,,,,,,,,,,,,,,,,,,,,
1,31512,30524,30744,26352,30944,3900,16859,-4307,-2551,0,-687,1709863204.2101216,0,18135,18146,18134,18143,18155,18151,18149,18134,14075,32,21,20,-6285,-14463,6180,0,0,0,1709863204.2272933,1,18384,18384,18373,18372,18363,18357,18361,18362,15884,50,14,16,687,-15786,5160,0,0,0,1709863204.2272933,2,12579,12572,12553,12556,12551,12566,12587,12598,35026,85,18,10,-3276,16404,536,0,0,0,1709863204.2272933,,,,,,,,,,,,,,,,,,,,,,,,,,,,,,,,,,,,,,,,,,,,,,,,,,,,,,,,,,,,,,,,,,,,,,,,,,,,,,,,,,,,,,,,,,,,,,,,,,,,
1,31560,30524,30544,29780,31128,3918,14827,-1419,-2541,0,-665,1709863204.3315036,0,17632,17581,17561,17586,17631,17691,17718,17727,10055,335,44,29,-6201,-14286,6218,0,0,0,1709863204.3481486,1,18181,18186,18187,18179,18139,18125,18128,18133,14186,144,5,35,1222,-15451,5272,0,0,0,1709863204.3481486,2,12355,12358,12372,12390,12367,12365,12348,12322,33341,93,11,45,-2426,15797,-520,0,0,0,1709863204.3481486,,,,,,,,,,,,,,,,,,,,,,,,,,,,,,,,,,,,,,,,,,,,,,,,,,,,,,,,,,,,,,,,,,,,,,,,,,,,,,,,,,,,,,,,,,,,,,,,,,,,
1,31548,30644,30788,25644,31012,3545,16524,-4596,-2554,0,-684,1709863204.4437006,0,17503,17537,17514,17504,17493,17489,17485,17499,8952,77,23,22,-6642,-14461,5628,0,0,0,1709863204.462308,1,17667,17670,17707,17705,17702,17671,17698,17738,10486,19,108,66,8,-15622,5374,0,0,0,1709863204.462308,2,12242,12250,12277,12302,12328,12352,12346,12351,32912,214,73,61,-2928,15910,210,0,0,0,1709863204.462308,,,,,,,,,,,,,,,,,,,,,,,,,,,,,,,,,,,,,,,,,,,,,,,,,,,,,,,,,,,,,,,,,,,,,,,,,,,,,,,,,,,,,,,,,,,,,,,,,,,,
1,31564,30652,30672,28936,31068,2870,17516,-3845,-2530,0,-650,1709863204.5544217,0,18136,18156,18159,18166,18171,18174,18172,18137,14199,68,36,20,-6414,-14412,6771,0,0,0,1709863204.5703306,1,17773,17834,17842,17823,17837,17823,17810,17826,11496,65,42,78,789,-15957,5201,0,0,0,1709863204.5703306,2,12542,12523,12506,12522,12545,12549,12543,12535,34729,65,40,11,-2123,16183,-861,0,0,0,1709863204.5703306,,,,,,,,,,,,,,,,,,,,,,,,,,,,,,,,,,,,,,,,,,,,,,,,,,,,,,,,,,,,,,,,,,,,,,,,,,,,,,,,,,,,,,,,,,,,,,,,,,,,
1,31524,30548,30432,30000,31012,3251,14502,-1522,-2514,0,-629,1709863204.6642506,0,18407,18532,18850,19119,19056,18820,18684,18607,19003,1257,380,83,-6432,-14131,5723,0,0,0,1709863204.681835,1,17870,17864,17850,17871,17853,17860,17858,17852,11806,10,15,36,1332,-15706,5502,0,0,0,1709863204.681835,2,12540,12527,12485,12518,12505,12461,12475,12515,34489,98,96,39,-2333,15866,-111,0,0,0,1709863204.681835,,,,,,,,,,,,,,,,,,,,,,,,,,,,,,,,,,,,,,,,,,,,,,,,,,,,,,,,,,,,,,,,,,,,,,,,,,,,,,,,,,,,,,,,,,,,,,,,,,,,
1,31584,30768,26892,30064,31012,3286,15720,-4166,-2503,0,-623,1709863204.791595,0,18523,18524,18511,18489,18438,18419,18430,18422,16684,231,37,70,-6316,-14038,4902,0,0,0,1709863204.8070607,1,17985,18009,18029,18049,18089,18100,18107,18101,13397,222,74,79,-210,-15600,5300,0,0,0,1709863204.8070607,2,12457,12465,12488,12537,12554,12538,12524,12546,34573,170,80,56,-2470,16490,-390,0,0,0,1709863204.8070607,,,,,,,,,,,,,,,,,,,,,,,,,,,,,,,,,,,,,,,,,,,,,,,,,,,,,,,,,,,,,,,,,,,,,,,,,,,,,,,,,,,,,,,,,,,,,,,,,,,,
1,31512,30568,30532,30028,31072,5169,16052,-3984,-2503,0,-620,1709863204.9032505,0,18023,18018,17980,18013,18053,18026,17942,17915,12898,146,192,51,-5541,-13994,5602,0,0,0,1709863204.9211285,1,18236,18237,18234,18224,18200,18193,18199,18192,14643,99,14,33,694,-15112,5160,0,0,0,1709863204.9211285,2,12499,12492,12503,12532,12557,12546,12523,12503,34618,122,30,2,-2778,15232,-372,0,0,0,1709863204.9211285,,,,,,,,,,,,,,,,,,,,,,,,,,,,,,,,,,,,,,,,,,,,,,,,,,,,,,,,,,,,,,,,,,,,,,,,,,,,,,,,,,,,,,,,,,,,,,,,,,,,
1,31532,30624,27260,30124,31056,2830,16295,-2203,-2473,0,-593,1709863205.0156887,0,17520,17544,17537,17513,17492,17503,17488,17479,9004,107,56,23,-5696,-14237,6996,0,0,0,1709863205.0316577,1,18108,18027,18015,18057,18085,18122,18172,18193,13707,324,101,8,2035,-15919,5621,0,0,0,1709863205.0316577,2,12453,12419,12429,12473,12469,12471,12479,12490,34146,106,74,8,-1843,16695,-175,0,0,0,1709863205.0316577,,,,,,,,,,,,,,,,,,,,,,,,,,,,,,,,,,,,,,,,,,,,,,,,,,,,,,,,,,,,,,,,,,,,,,,,,,,,,,,,,,,,,,,,,,,,,,,,,,,,
1,31580,30680,30336,29912,31056,413,18178,-1423,-2471,0,-585,1709863205.1224632,0,17419,17431,17455,17465,17472,17487,17475,17420,8552,127,51,22,-5286,-14837,7574,0,0,0,1709863205.1373692,1,18065,18085,18060,18073,18110,18149,18157,18120,13747,184,58,37,1536,-16666,5223,0,0,0,1709863205.1373692,2,12416,12382,12315,12293,12294,12308,12320,12397,33189,249,75,16,-3890,17445,-1137,0,0,0,1709863205.1373692,,,,,,,,,,,,,,,,,,,,,,,,,,,,,,,,,,,,,,,,,,,,,,,,,,,,,,,,,,,,,,,,,,,,,,,,,,,,,,,,,,,,,,,,,,,,,,,,,,,,
1,31588,30468,30600,30012,31024,3756,15329,-2593,-2461,0,-570,1709863205.2279894,0,17924,17989,17913,17876,17853,17767,17613,17564,11427,677,403,155,-6103,-14414,6374,0,0,0,1709863205.2438564,1,17837,17763,17730,17787,17919,18040,18048,17979,12031,664,43,25,52,-15662,4559,0,0,0,1709863205.2438564,2,12687,12985,12800,12274,12192,12307,12237,12036,33981,1454,994,202,-1500,16542,-2805,0,0,0,1709863205.2438564,,,,,,,,,,,,,,,,,,,,,,,,,,,,,,,,,,,,,,,,,,,,,,,,,,,,,,,,,,,,,,,,,,,,,,,,,,,,,,,,,,,,,,,,,,,,,,,,,,,,
1,31680,26484,30708,30072,31088,3681,16093,-3459,-2429,0,-547,1709863205.3369644,0,18082,18067,18041,18083,18161,18208,18205,18206,13981,362,14,70,-5994,-13990,6627,0,0,0,1709863205.3525026,1,17619,17687,17703,17698,17672,17652,17576,17571,10106,268,71,17,1264,-15856,4670,0,0,0,1709863205.3525026,2,11882,11935,12164,12372,12559,12656,12583,12504,33118,1496,418,319,-406,17070,-680,0,0,0,1709863205.3525026,,,,,,,,,,,,,,,,,,,,,,,,,,,,,,,,,,,,,,,,,,,,,,,,,,,,,,,,,,,,,,,,,,,,,,,,,,,,,,,,,,,,,,,,,,,,,,,,,,,,
1,31556,29888,30568,30044,30988,3842,17081,-1897,-2432,0,-545,1709863205.4404671,0,18746,18763,18740,18735,18761,18780,18754,18718,18925,41,90,16,-4773,-14342,6800,0,0,0,1709863205.4569254,1,17854,17867,17872,17865,17875,17874,17895,17890,11920,46,40,33,2464,-15836,4750,0,0,0,1709863205.4569254,2,12727,12743,12753,12773,12771,12733,12721,12713,36398,113,26,19,-4672,16697,-1217,0,0,0,1709863205.4569254,,,,,,,,,,,,,,,,,,,,,,,,,,,,,,,,,,,,,,,,,,,,,,,,,,,,,,,,,,,,,,,,,,,,,,,,,,,,,,,,,,,,,,,,,,,,,,,,,,,,
1,31532,30412,30556,30088,31060,2607,14286,654,-2422,0,-533,1709863205.5532265,0,18440,18364,18430,18371,18236,18164,18136,18225,15294,590,129,173,-5404,-13941,7221,0,0,0,1709863205.5700505,1,17996,18077,18107,18184,18126,17997,17911,17831,13157,597,119,126,2151,-15838,4253,0,0,0,1709863205.5700505,2,11953,11800,12064,12236,12410,12922,13326,13008,34182,2694,1152,223,-1143,17200,-315,0,0,0,1709863205.5700505,,,,,,,,,,,,,,,,,,,,,,,,,,,,,,,,,,,,,,,,,,,,,,,,,,,,,,,,,,,,,,,,,,,,,,,,,,,,,,,,,,,,,,,,,,,,,,,,,,,,
1,31728,26352,30752,30164,31068,3001,16960,-3040,-2393,0,-516,1709863205.6641712,0,17806,17831,17847,17851,17878,17913,17915,17885,11854,183,78,40,-4350,-14978,6514,0,0,0,1709863205.6810915,1,17877,17889,17925,17968,17977,17982,17999,17994,12539,216,114,53,555,-15937,4985,0,0,0,1709863205.6810915,2,12293,12511,12592,12623,12643,12654,12681,12617,35078,491,345,244,-3055,16637,-630,0,0,0,1709863205.6810915,3,,,,,,,,,,,,,,,,,0,0,1709863205.6810915,,,,,,,,,,,,,,,,,,,,,,,,,,,,,,,,,,,,,,,,,,,,,,,,,,,,,,,,,,,,,,,,,,,,,,,,,,,,,,,,
1,31600,29868,30644,30068,31024,3281,17642,-5966,-2404,0,-521,1709863205.7768483,0,17653,17678,17678,17664,17612,17586,17593,17633,10025,191,33,2,-4709,-13946,6023,0,0,0,1709863205.792416,1,18360,18436,18495,18497,18510,18495,18469,18437,16627,235,94,70,1379,-15485,5692,0,0,0,1709863205.792416,2,12662,12687,12698,12692,12679,12666,12668,12653,35869,78,26,13,-5248,16564,424,0,0,0,1709863205.792416,3,,,,,,,,,,,,,,,,,0,0,1709863205.792416,,,,,,,,,,,,,,,,,,,,,,,,,,,,,,,,,,,,,,,,,,,,,,,,,,,,,,,,,,,,,,,,,,,,,,,,,,,,,,,,
1,30936,30656,30580,30128,31096,6887,13631,-656,-2358,0,-478,1709863205.889277,0,17513,17426,17346,17260,17296,17396,17475,17548,8188,540,18,54,-4071,-13864,4403,0,0,0,1709863205.9035957,1,18639,18538,18406,18398,18385,18431,18448,18358,16531,307,272,252,469,-15151,4265,0,0,0,1709863205.9046235,2,12082,12127,12343,12558,12698,12777,12740,12774,34563,1367,524,376,-4745,14123,-537,0,0,0,1709863205.9046235,3,,,,,,,,,,,,,,,,,0,0,1709863205.9046235,,,,,,,,,,,,,,,,,,,,,,,,,,,,,,,,,,,,,,,,,,,,,,,,,,,,,,,,,,,,,,,,,,,,,,,,,,,,,,,,
1,29056,29956,30572,30184,31100,5486,17098,-4547,-2356,0,-480,1709863206.0025997,0,17989,18013,18026,18046,18088,18087,18064,18043,13284,176,17,46,-5187,-15237,5549,0,0,0,1709863206.0180557,1,18384,18389,18417,18420,18418,18410,18371,18353,16090,124,29,31,-116,-15315,5915,0,0,0,1709863206.0180557,2,12506,12509,12501,12509,12517,12515,12521,12519,34561,32,4,16,-6143,15753,1906,0,0,0,1709863206.0180557,3,,,,,,,,,,,,,,,,,0,0,1709863206.0180557,,,,,,,,,,,,,,,,,,,,,,,,,,,,,,,,,,,,,,,,,,,,,,,,,,,,,,,,,,,,,,,,,,,,,,,,,,,,,,,,
1,31568,30668,30548,30140,31080,4931,13895,-1810,-2405,0,-520,1709863206.1108127,0,18508,18466,18427,18409,18419,18418,18394,18371,16340,134,148,86,-5970,-14037,6550,0,0,0,1709863206.127088,1,18090,18111,18157,18254,18291,18191,18114,18093,14229,384,118,33,847,-15764,4688,0,0,0,1709863206.127088,2,12665,12642,12600,12598,12595,12577,12503,12471,35115,234,217,120,-323,15801,-457,0,0,0,1709863206.127088,3,,,,,,,,,,,,,,,,,0,0,1709863206.127088,,,,,,,,,,,,,,,,,,,,,,,,,,,,,,,,,,,,,,,,,,,,,,,,,,,,,,,,,,,,,,,,,,,,,,,,,,,,,,,,
1,29240,29652,30644,30160,31156,3090,16339,-2089,-2333,0,-475,1709863206.2149353,0,18426,18393,18473,18576,18613,18577,18595,18634,17215,402,241,109,-1010,-14549,6086,0,0,0,1709863206.2319353,1,17706,17742,17787,17891,17979,17861,17457,17330,10681,990,583,208,3323,-16234,4541,0,0,0,1709863206.2319353,2,12780,12874,12967,13018,12904,12605,12254,12226,36092,1544,519,248,-4913,17127,-682,0,0,0,1709863206.2319353,3,,,,,,,,,,,,,,,,,0,0,1709863206.2319353,,,,,,,,,,,,,,,,,,,,,,,,,,,,,,,,,,,,,,,,,,,,,,,,,,,,,,,,,,,,,,,,,,,,,,,,,,,,,,,,
1,30856,30292,30600,30076,31004,3086,16596,-3314,-2358,0,-496,1709863206.3306072,0,18067,18084,18102,18089,18106,18098,18079,18075,13628,63,19,29,-7075,-14425,6466,0,0,0,1709863206.3470054,1,17559,17545,17582,17586,17570,17547,17558,17560,9435,51,55,11,328,-15993,6056,0,0,0,1709863206.3470054,2,12407,12419,12435,12418,12341,12220,12171,12217,33092,550,142,69,-2985,16850,-623,0,0,0,1709863206.3470054,3,,,,,,,,,,,,,,,,,0,0,1709863206.3470054,,,,,,,,,,,,,,,,,,,,,,,,,,,,,,,,,,,,,,,,,,,,,,,,,,,,,,,,,,,,,,,,,,,,,,,,,,,,,,,,
1,31608,30456,30420,29940,31008,4643,11486,-688,-2363,0,-509,1709863206.4406838,0,17712,17767,17987,18205,18155,18035,17863,17806,12458,939,209,42,-4367,-13590,5458,0,0,0,1709863206.456492,1,17865,17895,17916,17931,17916,17903,17845,17810,12009,207,60,41,1860,-14844,4800,0,0,0,1709863206.456492,2,12637,12701,12832,12967,12900,12427,11909,11884,34720,2059,842,311,-1144,16406,-2190,0,0,0,1709863206.456492,3,,,,,,,,,,,,,,,,,0,0,1709863206.456492,4,0,0,0,0,0,0,0,0,0,0,0,0,Attribute not found,Attribute not found,Attribute not found,0,0,0,1709863206.456492,,,,,,,,,,,,,,,,,,,,,,,,,,,,,,,,,,,,,,,,,,,,,,,,,,,,,,,,,,,,
1,29648,26724,28944,27992,29076,2865,15800,-1565,-2357,0,-495,1709863206.5537882,0,17033,16915,16927,17023,17080,17171,17239,17193,5509,622,140,17,-5162,-13918,6615,0,0,0,1709863206.569113,1,18160,18117,18087,18198,18195,18184,18091,18045,14005,198,186,136,2117,-15425,5773,0,0,0,1709863206.569113,2,12511,11984,11587,11674,11897,12087,12219,12406,30829,1617,602,174,-3343,16012,-1892,0,0,0,1709863206.569113,3,,,,,,,,,,,,,,,,,0,0,1709863206.569113,4,0,0,0,0,0,0,0,0,0,0,0,0,Attribute not found,Attribute not found,Attribute not found,0,0,0,1709863206.569113,,,,,,,,,,,,,,,,,,,,,,,,,,,,,,,,,,,,,,,,,,,,,,,,,,,,,,,,,,,,
1,28852,26704,28712,27604,28860,4513,15524,-2959,-2357,0,-498,1709863207,0,18150,18149,18146,18156,18166,18198,18211,18168,14272,116,47,24,-7379,-13998,6223,0,0,0,1709863206.682673,1,18485,18489,18502,18546,18548,18527,18512,18500,17037,122,35,16,1144,-15925,6293,0,0,0,1709863206.682673,2,12718,12723,12743,12735,12741,12726,12697,12683,36229,101,36,19,-2940,16493,352,0,0,0,1709863206.682673,3,,,,,,,,,,,,,,,,,0,0,1709863206.682673,4,0,0,0,0,0,0,0,0,0,0,0,0,Attribute not found,Attribute not found,Attribute not found,0,0,0,1709863206.682673,,,,,,,,,,,,,,,,,,,,,,,,,,,,,,,,,,,,,,,,,,,,,,,,,,,,,,,,,,,,
1,31456,30620,30616,29692,30964,6653,13883,-7027,-2395,0,-540,1709863206.7890596,0,18660,18623,18579,18585,18572,18590,18609,18666,17812,180,58,8,-7557,-13837,4800,0,0,0,1709863206.804595,1,18615,18635,18661,18672,18659,18646,18640,18629,18085,93,33,6,-878,-14175,5468,0,0,0,1709863206.804595,2,12703,12695,12698,12731,12740,12743,12719,12731,36224,89,35,13,-3368,14068,-229,0,0,0,1709863206.804595,3,,,,,,,,,,,,,,,,,0,0,1709863206.804595,4,0,0,0,0,0,0,0,0,0,0,0,0,Attribute not found,Attribute not found,Attribute not found,0,0,0,1709863206.804595,,,,,,,,,,,,,,,,,,,,,,,,,,,,,,,,,,,,,,,,,,,,,,,,,,,,,,,,,,,,
1,31576,30624,30560,29968,31052,235,16337,-2773,-2327,0,-460,1709863206.912059,0,18165,18375,18517,18535,18496,18590,18751,18797,17154,644,709,378,-4605,-14953,7211,0,0,0,1709863206.9278464,1,18288,18206,18110,17996,17910,17849,17862,17929,13078,800,260,180,3145,-16265,4977,0,0,0,1709863206.9278464,2,12029,11947,11920,12056,12239,12435,12571,12522,32183,1344,296,195,-3348,17461,-395,0,0,0,1709863206.9278464,3,,,,,,,,,,,,,,,,,0,0,1709863206.9278464,4,0,0,0,0,0,0,0,0,0,0,0,0,Attribute not found,Attribute not found,Attribute not found,0,0,0,1709863206.9278464,,,,,,,,,,,,,,,,,,,,,,,,,,,,,,,,,,,,,,,,,,,,,,,,,,,,,,,,,,,,
1,28872,26836,28456,27776,29220,5462,14130,-4301,-2312,0,-442,1709863207.0307026,0,18017,18089,18284,18340,18103,17643,17232,16947,11583,2470,750,634,-5620,-12338,7542,0,0,0,1709863207.0446413,1,17383,17135,17083,17223,17232,17358,17435,17384,7161,632,149,210,2433,-15123,4593,0,0,0,1709863207.0446413,2,12325,12375,12437,12359,12239,12222,12184,12129,32734,524,123,141,-2728,16210,-343,0,0,0,1709863207.0446413,3,,,,,,,,,,,,,,,,,0,0,1709863207.0446413,4,0,0,0,0,0,0,0,0,0,0,0,0,Attribute not found,Attribute not found,Attribute not found,0,0,0,1709863207.0446413,,,,,,,,,,,,,,,,,,,,,,,,,,,,,,,,,,,,,,,,,,,,,,,,,,,,,,,,,,,,
1,29464,26908,27832,28036,29528,1472,16858,762,-2308,0,-438,1709863207.1358392,0,17895,17964,17934,17815,17712,17635,17582,17594,11059,784,210,112,-8219,-14354,6331,0,0,0,1709863207.1490834,1,17371,17362,17358,17359,17370,17378,17406,17423,7955,110,47,34,1656,-15904,7029,0,0,0,1709863207.1490834,2,12493,12493,12485,12495,12498,12494,12493,12471,34386,24,24,27,-3405,16524,-1032,0,0,0,1709863207.1490834,3,,,,,,,,,,,,,,,,,0,0,1709863207.1490834,4,0,0,0,0,0,0,0,0,0,0,0,0,Attribute not found,Attribute not found,Attribute not found,0,0,0,1709863207.1490834,,,,,,,,,,,,,,,,,,,,,,,,,,,,,,,,,,,,,,,,,,,,,,,,,,,,,,,,,,,,
1,31552,30532,30560,29672,30932,2956,15882,-608,-2350,0,-479,1709863207.2360733,0,18021,18019,18009,17990,17986,17971,17936,17889,12749,178,127,79,-4852,-13341,7325,0,0,0,1709863207.250258,1,17804,17779,17752,17755,17765,17778,17793,17796,11150,97,24,15,1971,-15672,3362,0,0,0,1709863207.250258,2,12565,12552,12555,12584,12579,12580,12580,12578,35037,55,31,13,-76,16688,-2932,0,0,0,1709863207.250258,3,,,,,,,,,,,,,,,,,0,0,1709863207.250258,4,0,0,0,0,0,0,0,0,0,0,0,0,Attribute not found,Attribute not found,Attribute not found,0,0,0,1709863207.250258,,,,,,,,,,,,,,,,,,,,,,,,,,,,,,,,,,,,,,,,,,,,,,,,,,,,,,,,,,,,
1,31540,30648,30556,30068,30968,2841,15468,-2687,-2337,0,-476,1709863207.347875,0,18354,18441,18473,18381,18328,18322,18358,18410,15995,221,151,93,-3652,-13668,6606,0,0,0,1709863207.3621914,1,18282,18322,18297,18253,18188,18191,18232,18186,14879,247,94,89,1528,-15737,4019,0,0,0,1709863207.3621914,2,12695,12671,12626,12606,12613,12634,12622,12631,35561,126,90,38,-30,16383,-1513,0,0,0,1709863207.3621914,3,,,,,,,,,,,,,,,,,0,0,1709863207.3621914,4,0,0,0,0,0,0,0,0,0,0,0,0,Attribute not found,Attribute not found,Attribute not found,0,0,0,1709863207.3621914,,,,,,,,,,,,,,,,,,,,,,,,,,,,,,,,,,,,,,,,,,,,,,,,,,,,,,,,,,,,
1,31304,30444,30364,30016,30948,2413,19398,-5958,-2312,0,-453,1709863207.448868,0,18368,18286,18359,18424,18410,18689,18896,18857,17217,1128,566,83,-3354,-14701,6147,0,0,0,1709863207.4632618,1,18122,18160,18167,18090,18135,18319,18496,18568,14985,807,443,267,600,-15429,6460,0,0,0,1709863207.4632618,2,12842,12696,12427,12298,12136,11978,12084,12341,33265,1490,468,214,-3744,16442,1318,0,0,0,1709863207.4632618,3,,,,,,,,,,,,,,,,,0,0,1709863207.4632618,4,0,0,0,0,0,0,0,0,0,0,0,0,Attribute not found,Attribute not found,Attribute not found,0,0,0,1709863207.4632618,,,,,,,,,,,,,,,,,,,,,,,,,,,,,,,,,,,,,,,,,,,,,,,,,,,,,,,,,,,,
1,28776,26904,27464,26920,29400,6132,14491,-3647,-2315,0,-442,1709863207.5445738,0,17582,17951,18127,17885,17813,18133,18654,18957,14030,1468,1579,932,-5011,-13816,6969,0,0,0,1709863207.558986,1,18510,18491,18512,18479,18353,18156,17994,17939,15362,1136,424,318,1764,-15822,4336,0,0,0,1709863207.558986,2,13082,13226,13195,13052,12877,12817,12771,12652,38136,1018,339,247,-2641,16071,-691,0,0,0,1709863207.558986,3,,,,,,,,,,,,,,,,,0,0,1709863207.558986,4,0,0,0,0,0,0,0,0,0,0,0,0,Attribute not found,Attribute not found,Attribute not found,0,0,0,1709863207.558986,,,,,,,,,,,,,,,,,,,,,,,,,,,,,,,,,,,,,,,,,,,,,,,,,,,,,,,,,,,,
1,28784,26840,28364,27452,29024,1332,18347,307,-2316,0,-443,1709863207.643058,0,17446,17398,17374,17328,17249,17281,17447,17702,8153,600,372,185,-6477,-14550,7292,0,0,0,1709863207.6587858,1,18309,18294,18343,18407,18377,18330,18314,18304,15606,182,91,35,1793,-16054,6752,0,0,0,1709863207.6587858,2,12399,12405,12416,12451,12481,12482,12450,12451,33999,162,20,34,-3505,16529,-905,0,0,0,1709863207.6587858,3,,,,,,,,,,,,,,,,,0,0,1709863207.6587858,4,0,0,0,0,0,0,0,0,0,0,0,0,Attribute not found,Attribute not found,Attribute not found,0,0,0,1709863207.6587858,,,,,,,,,,,,,,,,,,,,,,,,,,,,,,,,,,,,,,,,,,,,,,,,,,,,,,,,,,,,
1,31580,30584,30652,29412,30748,7372,16237,771,-2326,0,-455,1709863207.7503395,0,17428,17422,17442,17466,17471,17491,17493,17500,8641,141,64,28,-5381,-13733,7090,0,0,0,1709863208,1,18081,18119,18103,18149,18193,18195,18179,18133,14080,213,32,57,1434,-15648,4336,0,0,0,1709863208,2,12516,12508,12499,12505,12504,12503,12495,12481,34475,24,36,30,-312,14921,-1566,0,0,0,1709863208,3,,,,,,,,,,,,,,,,,0,0,1709863208,4,0,0,0,0,0,0,0,0,0,0,0,0,Attribute not found,Attribute not found,Attribute not found,0,0,0,1709863208,,,,,,,,,,,,,,,,,,,,,,,,,,,,,,,,,,,,,,,,,,,,,,,,,,,,,,,,,,,,
1,31516,30676,30600,30148,31036,5574,15107,-3865,-2323,0,-455,1709863207.848789,0,17543,17539,17519,17516,17540,17555,17581,17568,9289,113,19,26,-4354,-13952,5866,0,0,0,1709863207.8634906,1,17935,17936,17900,17880,17888,17913,17914,17883,12177,65,86,40,101,-14809,3895,0,0,0,1709863207.8634906,2,12390,12393,12373,12385,12378,12380,12382,12378,33522,17,16,24,-3368,14632,-342,0,0,0,1709863207.8634906,3,,,,,,,,,,,,,,,,,0,0,1709863207.8634906,4,0,0,0,0,0,0,0,0,0,0,0,0,Attribute not found,Attribute not found,Attribute not found,0,0,0,1709863207.8634906,,,,,,,,,,,,,,,,,,,,,,,,,,,,,,,,,,,,,,,,,,,,,,,,,,,,,,,,,,,,
1,31544,30624,30592,30132,31048,3324,16336,1629,-2310,0,-439,1709863207.9501226,0,17782,17789,17845,17957,17931,17765,17626,17556,11179,665,245,143,-4133,-14843,7498,0,0,0,1709863207.9645426,1,17518,17491,17518,17548,17543,17551,17586,17610,9293,156,123,32,4214,-16468,3603,0,0,0,1709863207.9645426,2,12368,12337,12284,12242,12204,12232,12309,12385,32825,343,61,11,-3941,17066,-925,0,0,0,1709863207.9645426,3,,,,,,,,,,,,,,,,,0,0,1709863207.9645426,4,0,0,0,0,0,0,0,0,0,0,0,0,Attribute not found,Attribute not found,Attribute not found,0,0,0,1709863207.9645426,,,,,,,,,,,,,,,,,,,,,,,,,,,,,,,,,,,,,,,,,,,,,,,,,,,,,,,,,,,,
1,31540,30640,30604,29948,29176,1972,16854,-824,-2368,0,-490,1709863208.056875,0,18152,18141,18155,18169,18191,18209,18229,18278,14452,199,105,85,-5006,-14162,8206,0,0,0,1709863208.0724833,1,17512,17580,17586,17602,17622,17644,17577,17510,9561,222,115,10,2906,-16640,3671,0,0,0,1709863208.0724833,2,12521,12508,12499,12502,12472,12448,12452,12493,34359,128,57,13,-933,16677,-1514,0,0,0,1709863208.0724833,3,,,,,,,,,,,,,,,,,0,0,1709863208.0724833,4,0,0,0,0,0,0,0,0,0,0,0,0,Attribute not found,Attribute not found,Attribute not found,0,0,0,1709863208.0724833,,,,,,,,,,,,,,,,,,,,,,,,,,,,,,,,,,,,,,,,,,,,,,,,,,,,,,,,,,,,
1,31540,30636,30648,29968,30604,14909,6610,1797,-2363,0,-481,1709863208.1623516,0,18550,18546,18551,18566,18568,18550,18552,18549,17360,33,24,10,-4571,-14122,6994,0,0,0,1709863208.177068,1,17808,17796,17767,17770,17785,17802,17786,17794,11236,53,52,10,2048,-15889,4155,0,0,0,1709863208.177068,2,12608,12603,12612,12627,12637,12629,12629,12670,35478,67,65,51,-617,16359,-2505,0,0,0,1709863208.177068,3,,,,,,,,,,,,,,,,,0,0,1709863208.177068,4,0,0,0,0,0,0,0,0,0,0,0,0,Attribute not found,Attribute not found,Attribute not found,0,0,0,1709863208.177068,,,,,,,,,,,,,,,,,,,,,,,,,,,,,,,,,,,,,,,,,,,,,,,,,,,,,,,,,,,,
1,31528,30588,30608,30152,31024,3453,14843,3,-2335,0,-453,1709863208.2611468,0,18263,18266,18289,18296,18280,18239,18236,18242,15039,116,37,4,-4886,-14178,6710,0,0,0,1709863208.2743702,1,18088,18073,18045,18031,18035,18034,18029,18026,13289,90,70,32,2430,-15863,4254,0,0,0,1709863208.2743702,2,12564,12568,12555,12566,12573,12583,12565,12564,35001,28,27,3,-2556,16021,-1223,0,0,0,1709863208.2743702,3,,,,,,,,,,,,,,,,,0,0,1709863208.2743702,4,0,0,0,0,0,0,0,0,0,0,0,0,Attribute not found,Attribute not found,Attribute not found,0,0,0,1709863208.2743702,,,,,,,,,,,,,,,,,,,,,,,,,,,,,,,,,,,,,,,,,,,,,,,,,,,,,,,,,,,,
1,31552,30612,30596,30044,31040,2653,15293,-1309,-2321,0,-443,1709863208.3592553,0,17795,17756,17694,17655,17708,17866,17988,17982,11372,649,179,68,-5017,-13822,6987,0,0,0,1709863208.3728516,1,18247,18266,18239,18212,18225,18258,18270,18237,14882,62,83,19,2365,-15652,4316,0,0,0,1709863208.3728516,2,12511,12533,12557,12592,12600,12604,12590,12601,35052,160,66,50,-2871,16087,-1818,0,0,0,1709863208.3728516,3,,,,,,,,,,,,,,,,,0,0,1709863208.3728516,4,0,0,0,0,0,0,0,0,0,0,0,0,Attribute not found,Attribute not found,Attribute not found,0,0,0,1709863208.3728516,,,,,,,,,,,,,,,,,,,,,,,,,,,,,,,,,,,,,,,,,,,,,,,,,,,,,,,,,,,,
1,31572,30628,30692,27308,30952,3867,15695,-2904,-2334,0,-461,1709863208.456722,0,17372,17373,17384,17382,17371,17367,17354,17360,7891,50,5,15,-4779,-14135,6961,0,0,0,1709863208,1,18464,18424,18354,18321,18338,18377,18391,18383,15980,208,112,55,2070,-15984,4227,0,0,0,1709863208,2,12514,12492,12470,12473,12460,12449,12427,12479,34227,112,77,25,-1983,16027,-1157,0,0,0,1709863208,3,,,,,,,,,,,,,,,,,0,0,1709863208,4,0,0,0,0,0,0,0,0,0,0,0,0,Attribute not found,Attribute not found,Attribute not found,0,0,0,1709863208,,,,,,,,,,,,,,,,,,,,,,,,,,,,,,,,,,,,,,,,,,,,,,,,,,,,,,,,,,,,
1,31516,30532,30668,27240,31000,3986,17192,-1215,-2318,0,-439,1709863208.562309,0,17460,17466,17482,17507,17504,17508,17503,17530,8888,88,66,39,-5625,-14652,6383,0,0,0,1709863208.5758326,1,18437,18437,18443,18438,18454,18444,18439,18442,16462,19,9,18,1928,-15922,4960,0,0,0,1709863208.5758326,2,12604,12618,12604,12621,12601,12588,12586,12583,35269,66,15,31,-2992,15975,-1433,0,0,0,1709863208.5758326,3,,,,,,,,,,,,,,,,,0,0,1709863208.5758326,4,0,0,0,0,0,0,0,0,0,0,0,0,Attribute not found,Attribute not found,Attribute not found,0,0,0,1709863208.5758326,,,,,,,,,,,,,,,,,,,,,,,,,,,,,,,,,,,,,,,,,,,,,,,,,,,,,,,,,,,,
1,31524,30544,30584,29968,31036,4590,14945,-1556,-2316,0,-426,1709863208.659904,0,17912,17880,17887,17889,17881,17851,17855,17875,11958,75,60,20,-5534,-14074,7154,0,0,0,1709863208.6754634,1,18187,18135,18117,18134,18140,18149,18176,18211,14177,153,69,5,2177,-15438,4700,0,0,0,1709863208.6754634,2,12500,12509,12495,12500,12480,12471,12473,12475,34366,72,13,25,-1923,16052,-1382,0,0,0,1709863208.6754634,3,,,,,,,,,,,,,,,,,0,0,1709863208.6754634,4,0,0,0,0,0,0,0,0,0,0,0,0,Attribute not found,Attribute not found,Attribute not found,0,0,0,1709863208.6754634,,,,,,,,,,,,,,,,,,,,,,,,,,,,,,,,,,,,,,,,,,,,,,,,,,,,,,,,,,,,
1,31532,30636,30612,30016,30976,7488,14644,-5743,-2299,0,-412,1709863208.7688022,0,18154,17981,17932,18019,18152,18276,18376,18374,14192,904,136,43,-4811,-14620,6258,0,0,0,1709863208.7821631,1,17707,17758,17738,17720,17741,17781,17834,17846,11053,205,126,107,2051,-15433,4379,0,0,0,1709863208.7821631,2,12452,12452,12446,12424,12410,12423,12430,12429,33930,73,26,17,-1841,15409,-428,0,0,0,1709863208.7821631,3,,,,,,,,,,,,,,,,,0,0,1709863208.7821631,4,0,0,0,0,0,0,0,0,0,0,0,0,Attribute not found,Attribute not found,Attribute not found,0,0,0,1709863208.7821631,,,,,,,,,,,,,,,,,,,,,,,,,,,,,,,,,,,,,,,,,,,,,,,,,,,,,,,,,,,,
1,31556,30700,28500,30136,31148,6771,15055,-4877,-2267,0,-383,1709863208.8686957,0,18580,18734,18905,19022,18972,18887,18768,18676,19472,793,143,39,-5161,-14428,5163,0,0,0,1709863208.8832326,1,17433,17519,17524,17503,17474,17468,17476,17505,8830,82,95,79,505,-15113,4881,0,0,0,1709863208.8832326,2,12461,12469,12458,12445,12427,12434,12449,12473,34080,79,24,11,-2750,15225,-230,0,0,0,1709863208.8832326,3,,,,,,,,,,,,,,,,,0,0,1709863208.8832326,4,0,0,0,0,0,0,0,0,0,0,0,0,Attribute not found,Attribute not found,Attribute not found,0,0,0,1709863208.8832326,,,,,,,,,,,,,,,,,,,,,,,,,,,,,,,,,,,,,,,,,,,,,,,,,,,,,,,,,,,,
1,31536,30644,28980,30060,31056,5063,15730,-1856,-2289,0,-399,1709863208.9720664,0,18532,18524,18493,18498,18479,18480,18473,18424,16831,108,93,97,-5238,-14501,6718,0,0,0,1709863208.9868102,1,17341,17335,17338,17328,17319,17327,17335,17359,7610,51,28,20,1755,-15981,5295,0,0,0,1709863208.9868102,2,12448,12424,12402,12413,12421,12434,12446,12454,33906,93,22,9,-1651,16320,-1398,0,0,0,1709863208.9868102,3,,,,,,,,,,,,,,,,,0,0,1709863208.9868102,4,0,0,0,0,0,0,0,0,0,0,0,0,Attribute not found,Attribute not found,Attribute not found,0,0,0,1709863208.9868102,,,,,,,,,,,,,,,,,,,,,,,,,,,,,,,,,,,,,,,,,,,,,,,,,,,,,,,,,,,,
1,31572,30592,30652,30000,31084,5548,14356,-2572,-2313,0,-416,1709863209.0688696,0,18035,18021,18052,18132,18204,18213,18151,18118,13854,386,39,35,-4110,-14145,6674,0,0,0,1709863209.0826569,1,17639,17647,17639,17604,17602,17613,17609,17644,9925,92,13,37,2478,-15351,4514,0,0,0,1709863209.0826569,2,12495,12496,12492,12494,12512,12542,12581,12662,34738,250,135,120,-1955,15373,-1737,0,0,0,1709863209.0826569,3,,,,,,,,,,,,,,,,,0,0,1709863209.0826569,4,0,0,0,0,0,0,0,0,0,0,0,0,Attribute not found,Attribute not found,Attribute not found,0,0,0,1709863209.0826569,,,,,,,,,,,,,,,,,,,,,,,,,,,,,,,,,,,,,,,,,,,,,,,,,,,,,,,,,,,,
1,31544,30608,30596,29996,31048,4669,16015,-2858,-2301,0,-401,1709863209.1654925,0,18023,18087,18077,18073,18145,18140,18059,18034,13566,187,124,63,-4797,-13848,7640,0,0,0,1709863209.1800923,1,17689,17680,17707,17766,17792,17851,17958,18083,11454,596,367,226,2545,-15723,4066,0,0,0,1709863209.1800923,2,12725,12880,12692,12496,12445,12398,12379,12418,34897,906,377,83,-422,16378,-2487,0,0,0,1709863209.1800923,3,,,,,,,,,,,,,,,,,0,0,1709863209.1800923,4,0,0,0,0,0,0,0,0,0,0,0,0,Attribute not found,Attribute not found,Attribute not found,0,0,0,1709863209.1800923,,,,,,,,,,,,,,,,,,,,,,,,,,,,,,,,,,,,,,,,,,,,,,,,,,,,,,,,,,,,
1,31672,28404,30688,30036,31088,2414,16676,-1460,-2272,0,-386,1709863209.2568464,0,17724,17563,17363,17311,17401,17380,17367,17476,8513,569,424,78,-3626,-13602,7067,0,0,0,1709863209.2710097,1,18125,18160,18283,18413,18437,18432,18338,18230,15346,644,77,12,1980,-16236,4117,0,0,0,1709863209.2710097,2,13112,13100,12797,12325,11850,11598,11561,11851,32658,3299,798,558,-706,16800,-1729,0,0,0,1709863209.2710097,3,,,,,,,,,,,,,,,,,0,0,1709863209.2710097,4,0,0,0,0,0,0,0,0,0,0,0,0,Attribute not found,Attribute not found,Attribute not found,0,0,0,1709863209.2710097,,,,,,,,,,,,,,,,,,,,,,,,,,,,,,,,,,,,,,,,,,,,,,,,,,,,,,,,,,,,
1,31712,26684,30724,30056,31056,5711,15654,-4347,-2277,0,-393,1709863209.3550172,0,17672,17692,17730,17762,17751,17723,17694,17702,10654,154,49,21,-4863,-14309,6618,0,0,0,1709863209.3700118,1,18549,18545,18538,18519,18505,18487,18464,18477,17012,154,63,32,686,-15619,4895,0,0,0,1709863209.3700118,2,12748,12742,12744,12743,12758,12786,12775,12773,36533,85,17,21,-2174,15940,-1359,0,0,0,1709863209.3700118,3,,,,,,,,,,,,,,,,,0,0,1709863209.3700118,4,0,0,0,0,0,0,0,0,0,0,0,0,Attribute not found,Attribute not found,Attribute not found,0,0,0,1709863209.3700118,,,,,,,,,,,,,,,,,,,,,,,,,,,,,,,,,,,,,,,,,,,,,,,,,,,,,,,,,,,,
1,31520,30668,30552,30076,31080,4398,13706,-1368,-2305,0,-406,1709863209.4632201,0,17990,17988,17992,18006,18044,18084,18086,18075,13193,222,44,41,-4982,-14000,8025,0,0,0,1709863209.4763322,1,18637,18627,18625,18636,18615,18600,18600,18562,17830,97,39,72,2404,-16106,4654,0,0,0,1709863209.4763322,2,12772,12747,12730,12721,12741,12775,12781,12777,36508,121,24,13,-163,16409,-3567,0,0,0,1709863209.4763322,3,,,,,,,,,,,,,,,,,0,0,1709863209.4763322,4,0,0,0,0,0,0,0,0,0,0,0,0,Attribute not found,Attribute not found,Attribute not found,0,0,0,1709863209.4763322,,,,,,,,,,,,,,,,,,,,,,,,,,,,,,,,,,,,,,,,,,,,,,,,,,,,,,,,,,,,
1,31168,30652,30632,30112,31084,5662,14476,-1692,-2280,0,-387,1709863209.5599751,0,18531,18538,18462,18293,18183,18142,18205,18358,15640,833,55,31,-5969,-13937,6085,0,0,0,1709863209.5724301,1,18066,18106,18138,18180,18163,18165,18063,17919,13728,389,174,145,1708,-15412,4336,0,0,0,1709863209.5724301,2,12529,12532,12449,12249,12106,11785,11600,12055,31768,1719,586,186,179,15807,-2897,0,0,0,1709863209.5724301,3,,,,,,,,,,,,,,,,,0,0,1709863209.5724301,4,0,0,0,0,0,0,0,0,0,0,0,0,Attribute not found,Attribute not found,Attribute not found,0,0,0,1709863209.5724301,,,,,,,,,,,,,,,,,,,,,,,,,,,,,,,,,,,,,,,,,,,,,,,,,,,,,,,,,,,,
1,28948,29824,30704,30160,31148,7387,14937,-4483,-2277,0,-391,1709863209.6613536,0,18427,18389,18347,18302,18310,18309,18289,18211,15512,209,210,139,-7804,-14989,6950,0,0,0,1709863209.679914,1,17709,17644,17739,17690,17560,17450,17435,17486,9641,602,125,157,-858,-15993,5064,0,0,0,1709863209.679914,2,12715,12699,12660,12645,12629,12632,12652,12634,35730,140,61,66,590,16309,-1719,0,0,0,1709863209.679914,3,,,,,,,,,,,,,,,,,0,0,1709863209.679914,4,0,0,0,0,0,0,0,0,0,0,0,0,Attribute not found,Attribute not found,Attribute not found,0,0,0,1709863209.679914,,,,,,,,,,,,,,,,,,,,,,,,,,,,,,,,,,,,,,,,,,,,,,,,,,,,,,,,,,,,
1,28788,29924,30652,30152,31144,5792,14168,-2146,-2290,0,-406,1709863209.7656472,0,17966,17981,18002,18035,18046,18041,18088,18145,13232,210,176,120,-4765,-13990,7273,0,0,0,1709863209.778822,1,17427,17431,17378,17359,17360,17384,17418,17449,8134,178,11,31,1869,-15445,5132,0,0,0,1709863209.778822,2,12458,12545,12624,12627,12571,12385,12134,12056,33864,1084,366,179,-1859,16134,-2871,0,0,0,1709863209.778822,3,,,,,,,,,,,,,,,,,0,0,1709863209.778822,4,0,0,0,0,0,0,0,0,0,0,0,0,Attribute not found,Attribute not found,Attribute not found,0,0,0,1709863209.778822,,,,,,,,,,,,,,,,,,,,,,,,,,,,,,,,,,,,,,,,,,,,,,,,,,,,,,,,,,,,
1,31580,30424,30620,30116,31076,4083,14536,-2561,-2293,0,-415,1709863209.8631303,0,18146,18068,18070,18090,18013,17858,17750,17756,12679,706,348,229,-3181,-14355,7777,0,0,0,1709863209.8783872,1,17547,17586,17649,17612,17505,17439,17492,17665,9423,289,267,134,3471,-16026,4032,0,0,0,1709863209.8783872,2,11407,11739,12114,12260,12284,12299,12468,12818,31852,1442,1369,978,-447,16822,-3362,0,0,0,1709863209.8783872,3,,,,,,,,,,,,,,,,,0,0,1709863209.8783872,4,0,0,0,0,0,0,0,0,0,0,0,0,Attribute not found,Attribute not found,Attribute not found,0,0,0,1709863209.8783872,,,,,,,,,,,,,,,,,,,,,,,,,,,,,,,,,,,,,,,,,,,,,,,,,,,,,,,,,,,,
1,31744,26952,30668,30172,31128,2885,15917,-2234,-2277,0,-406,1709863209.966878,0,17426,17601,17736,17696,17758,17659,17566,17511,9881,566,129,179,-6137,-14292,8160,0,0,0,1709863209.9798338,1,17839,17737,17747,17790,17762,17715,17685,17661,10864,168,169,159,1278,-16458,4066,0,0,0,1709863209.9798338,2,13013,13216,13140,12712,13080,12864,12566,12405,37460,1040,1037,146,840,17475,-2500,0,0,0,1709863209.9798338,3,,,,,,,,,,,,,,,,,0,0,1709863209.9798338,4,0,0,0,0,0,0,0,0,0,0,0,0,Attribute not found,Attribute not found,Attribute not found,0,0,0,1709863209.9798338,,,,,,,,,,,,,,,,,,,,,,,,,,,,,,,,,,,,,,,,,,,,,,,,,,,,,,,,,,,,
1,31652,26424,30652,30096,31020,6853,15077,-5431,-2287,0,-412,1709863210.0687046,0,17752,17764,17773,17779,17806,17818,17838,17859,11317,163,77,78,-4537,-14346,7155,0,0,0,1709863210.0824347,1,18265,18272,18289,18303,18288,18235,18191,18171,14942,235,80,49,3107,-16191,4038,0,0,0,1709863210.0824347,2,12734,12729,12726,12746,12732,12726,12722,12708,36287,40,18,36,-1059,16817,-2331,0,0,0,1709863210.0824347,3,,,,,,,,,,,,,,,,,0,0,1709863210.0824347,4,0,0,0,0,0,0,0,0,0,0,0,0,Attribute not found,Attribute not found,Attribute not found,0,0,0,1709863210.0824347,,,,,,,,,,,,,,,,,,,,,,,,,,,,,,,,,,,,,,,,,,,,,,,,,,,,,,,,,,,,
1,31508,30640,30548,30068,31020,6986,13564,-70,-2317,0,-429,1709863210.1669939,0,18050,18025,18037,18033,18065,18154,18253,18324,13869,522,249,152,-7627,-14766,5863,0,0,0,1709863210.179847,1,18758,18798,18774,18796,18794,18725,18602,18555,18730,423,246,96,1142,-16069,4601,0,0,0,1709863210.179847,2,12551,12623,12709,12797,12819,12775,12706,12597,36040,518,45,36,-897,16121,-1493,0,0,0,1709863210.179847,3,,,,,,,,,,,,,,,,,0,0,1709863210.179847,4,0,0,0,0,0,0,0,0,0,0,0,0,Attribute not found,Attribute not found,Attribute not found,0,0,0,1709863210.179847,,,,,,,,,,,,,,,,,,,,,,,,,,,,,,,,,,,,,,,,,,,,,,,,,,,,,,,,,,,,
1,31504,30696,30212,30056,31052,4880,13995,-4031,-2298,0,-412,1709863210.2678459,0,18397,18300,18217,18191,18240,18249,18287,18333,15142,322,135,21,-3604,-14044,7140,0,0,0,1709863210.281418,1,18642,18662,18647,18643,18640,18603,18547,18498,17810,251,152,76,3287,-16114,3086,0,0,0,1709863210.281418,2,12443,12542,12660,12696,12645,12569,12450,12438,34907,549,31,46,-2628,15914,-1284,0,0,0,1709863210.281418,3,,,,,,,,,,,,,,,,,0,0,1709863210.281418,4,0,0,0,0,0,0,0,0,0,0,0,0,Attribute not found,Attribute not found,Attribute not found,0,0,0,1709863210.281418,,,,,,,,,,,,,,,,,,,,,,,,,,,,,,,,,,,,,,,,,,,,,,,,,,,,,,,,,,,,
1,31572,30700,28112,30172,31040,3907,14480,-2848,-2298,0,-408,1709863210.3929203,0,18161,18154,18156,18145,18140,18138,18129,18123,14074,56,28,25,-5392,-14208,7828,0,0,0,1709863210.4070454,1,18255,18258,18229,18178,18149,18149,18137,18153,14436,249,84,46,1946,-16216,4806,0,0,0,1709863210.4070454,2,12407,12401,12379,12382,12399,12416,12423,12433,33704,96,4,17,-2096,17360,-1370,0,0,0,1709863210.4070454,3,,,,,,,,,,,,,,,,,0,0,1709863210.4070454,4,0,0,0,0,0,0,0,0,0,0,0,0,Attribute not found,Attribute not found,Attribute not found,0,0,0,1709863210.4070454,,,,,,,,,,,,,,,,,,,,,,,,,,,,,,,,,,,,,,,,,,,,,,,,,,,,,,,,,,,,
1,31584,30600,30608,30144,31024,5325,14692,-2329,-2309,0,-408,1709863210.5030441,0,17940,17960,17938,17907,17899,17903,17935,17954,12364,114,34,32,-4980,-13867,6784,0,0,0,1709863210.516814,1,17740,17744,17717,17697,17705,17701,17637,17612,10481,170,163,65,1836,-15486,4370,0,0,0,1709863210.516814,2,12243,12249,12229,12237,12258,12254,12225,12222,32380,31,64,3,-1356,15642,-1112,0,0,0,1709863210.516814,3,,,,,,,,,,,,,,,,,0,0,1709863210.516814,4,0,0,0,0,0,0,0,0,0,0,0,0,Attribute not found,Attribute not found,Attribute not found,0,0,0,1709863210.516814,,,,,,,,,,,,,,,,,,,,,,,,,,,,,,,,,,,,,,,,,,,,,,,,,,,,,,,,,,,,
1,31556,30624,30700,28708,31068,5520,15776,-3392,-2296,0,-404,1709863210.6081727,0,17899,17737,17658,17669,17718,17788,17813,17830,11040,399,148,103,-4594,-14013,6429,0,0,0,1709863210.6216896,1,17437,17469,17538,17567,17496,17479,17451,17405,8770,265,60,65,1572,-15274,3820,0,0,0,1709863210.6216896,2,12292,12220,12188,12205,12227,12278,12320,12330,32524,284,38,17,-2318,14901,-605,0,0,0,1709863210.6216896,3,,,,,,,,,,,,,,,,,0,0,1709863210.6216896,4,0,0,0,0,0,0,0,0,0,0,0,0,Attribute not found,Attribute not found,Attribute not found,0,0,0,1709863210.6216896,,,,,,,,,,,,,,,,,,,,,,,,,,,,,,,,,,,,,,,,,,,,,,,,,,,,,,,,,,,,
1,31584,30580,30768,25832,31104,4770,17086,-4082,-2293,0,-403,1709863210.7112472,0,17851,17858,17868,17850,17860,17866,17898,17912,11891,84,66,51,-6490,-15129,6555,0,0,0,1709863210.7249331,1,17742,17742,17728,17735,17736,17741,17752,17758,10862,45,10,13,1483,-16118,5581,0,0,0,1709863210.7249331,2,12498,12508,12514,12520,12515,12512,12494,12503,34527,43,5,11,-3708,16693,-580,0,0,0,1709863210.7249331,3,,,,,,,,,,,,,,,,,0,0,1709863210.7249331,4,0,0,0,0,0,0,0,0,0,0,0,0,Attribute not found,Attribute not found,Attribute not found,0,0,0,1709863210.7249331,,,,,,,,,,,,,,,,,,,,,,,,,,,,,,,,,,,,,,,,,,,,,,,,,,,,,,,,,,,,
1,31504,30568,30616,29928,31056,5440,14416,-2257,-2308,0,-408,1709863210.8150728,0,18280,18288,18296,18313,18330,18331,18326,18301,15393,102,13,13,-5372,-14068,6751,0,0,0,1709863210.8297913,1,18335,18346,18345,18354,18351,18353,18352,18356,15720,23,15,12,1873,-15783,4614,0,0,0,1709863210.8297913,2,12703,12708,12707,12735,12741,12748,12754,12745,36305,101,29,20,-2317,15948,-1606,0,0,0,1709863210.8297913,3,,,,,,,,,,,,,,,,,0,0,1709863210.8297913,4,0,0,0,0,0,0,0,0,0,0,0,0,Attribute not found,Attribute not found,Attribute not found,0,0,0,1709863210.8297913,,,,,,,,,,,,,,,,,,,,,,,,,,,,,,,,,,,,,,,,,,,,,,,,,,,,,,,,,,,,
1,31532,30532,30532,30052,31080,6800,15763,-1920,-2333,0,-430,1709863210.914458,0,18090,18094,18122,18101,18071,18089,18271,18489,14255,514,468,286,-4927,-13711,6364,0,0,0,1709863210.9299352,1,18560,18601,18664,18707,18656,18574,18523,18476,17689,402,30,63,1961,-15387,3711,0,0,0,1709863210.9299352,2,12592,12577,12595,12617,12594,12593,12604,12632,35268,31,80,12,-1650,15782,-1813,0,0,0,1709863210.9299352,3,,,,,,,,,,,,,,,,,0,0,1709863210.9299352,4,0,0,0,0,0,0,0,0,0,0,0,0,Attribute not found,Attribute not found,Attribute not found,0,0,0,1709863210.9299352,,,,,,,,,,,,,,,,,,,,,,,,,,,,,,,,,,,,,,,,,,,,,,,,,,,,,,,,,,,,
1,31580,30704,30632,29532,29816,3218,16312,-4224,-2368,0,-465,1709863211.0204568,0,18108,18107,18112,18098,18096,18089,18056,18045,13639,106,64,37,-7118,-14396,5838,0,0,0,1709863211.033467,1,18286,18300,18285,18302,18290,18286,18296,18285,15258,12,5,32,36,-15733,4546,0,0,0,1709863211.033467,2,12514,12520,12503,12520,12516,12525,12508,12509,34579,13,24,13,-1073,16247,-852,0,0,0,1709863211.033467,3,,,,,,,,,,,,,,,,,0,0,1709863211.033467,4,0,0,0,0,0,0,0,0,0,0,0,0,Attribute not found,Attribute not found,Attribute not found,0,0,0,1709863211.033467,,,,,,,,,,,,,,,,,,,,,,,,,,,,,,,,,,,,,,,,,,,,,,,,,,,,,,,,,,,,
1,31564,30632,30544,29892,30876,5254,16379,-3238,-2355,0,-449,1709863211.126838,0,17750,17793,17820,17801,17762,17747,17732,17671,11004,224,78,59,-5030,-14280,7325,0,0,0,1709863211.1399813,1,17989,18018,18017,18012,18018,18013,18020,18011,13026,26,31,32,2591,-15998,4372,0,0,0,1709863211.1399813,2,12400,12408,12430,12429,12427,12432,12422,12421,33833,49,26,19,-1433,16631,-2143,0,0,0,1709863211.1399813,3,,,,,,,,,,,,,,,,,0,0,1709863211.1399813,4,0,0,0,0,0,0,0,0,0,0,0,0,Attribute not found,Attribute not found,Attribute not found,0,0,0,1709863211.1399813,,,,,,,,,,,,,,,,,,,,,,,,,,,,,,,,,,,,,,,,,,,,,,,,,,,,,,,,,,,,
1,31476,30584,30544,30160,31012,3683,15250,-186,-2349,0,-444,1709863211.2229624,0,17426,17346,17284,17299,17378,17476,17548,17558,8243,556,44,44,-5494,-14201,6867,0,0,0,1709863211.2368956,1,17679,17672,17668,17653,17653,17634,17588,17585,10060,155,101,47,1710,-15830,4362,0,0,0,1709863211.2368956,2,12379,12384,12382,12385,12420,12429,12417,12413,33673,101,15,33,-1419,16508,-1492,0,0,0,1709863211.2368956,3,,,,,,,,,,,,,,,,,0,0,1709863211.2368956,4,0,0,0,0,0,0,0,0,0,0,0,0,Attribute not found,Attribute not found,Attribute not found,0,0,0,1709863211.2368956,,,,,,,,,,,,,,,,,,,,,,,,,,,,,,,,,,,,,,,,,,,,,,,,,,,,,,,,,,,,
1,31600,30556,30740,28032,30980,1976,16803,-2087,-2349,0,-457,1709863211.3270094,0,17577,17536,17514,17582,17615,17549,17503,17493,9297,127,175,54,-4199,-13830,6447,0,0,0,1709863211.3406458,1,17398,17388,17397,17426,17435,17417,17402,17411,8202,69,46,7,2744,-15702,4261,0,0,0,1709863211.3406458,2,12356,12378,12367,12367,12380,12381,12350,12391,33434,9,19,53,-2812,16719,-789,0,0,0,1709863211.3406458,3,,,,,,,,,,,,,,,,,0,0,1709863211.3406458,4,0,0,0,0,0,0,0,0,0,0,0,0,Attribute not found,Attribute not found,Attribute not found,0,0,0,1709863211.3406458,,,,,,,,,,,,,,,,,,,,,,,,,,,,,,,,,,,,,,,,,,,,,,,,,,,,,,,,,,,,
1,31556,30600,30728,26328,30992,4799,16920,-3996,-2352,0,-457,1709863211,0,18189,18215,18241,18246,18243,18233,18241,18268,14804,58,82,63,-5391,-14548,6512,0,0,0,1709863211.4406672,1,17547,17559,17572,17572,17568,17580,17561,17557,9444,46,20,15,1568,-16041,4616,0,0,0,1709863211.4406672,2,12605,12607,12606,12622,12625,12613,12603,12590,35334,51,22,16,-2445,16576,-672,0,0,0,1709863211.4406672,3,,,,,,,,,,,,,,,,,0,0,1709863211.4406672,4,0,0,0,0,0,0,0,0,0,0,0,0,Attribute not found,Attribute not found,Attribute not found,0,0,0,1709863211.4406672,,,,,,,,,,,,,,,,,,,,,,,,,,,,,,,,,,,,,,,,,,,,,,,,,,,,,,,,,,,,
1,31568,30568,30544,30084,31012,3780,13225,-768,-2339,0,-430,1709863211.5271513,0,18603,18620,18662,18644,18629,18630,18704,18743,18163,124,191,95,-5256,-14229,6748,0,0,0,1709863211.5409827,1,17865,17874,17875,17867,17840,17822,17815,17840,11726,123,18,8,1540,-15828,5101,0,0,0,1709863211.5409827,2,12683,12685,12674,12688,12683,12679,12678,12674,35908,11,14,19,-2109,16231,-1662,0,0,0,1709863211.5409827,3,,,,,,,,,,,,,,,,,0,0,1709863211.5409827,4,0,0,0,0,0,0,0,0,0,0,0,0,Attribute not found,Attribute not found,Attribute not found,0,0,0,1709863211.5409827,,,,,,,,,,,,,,,,,,,,,,,,,,,,,,,,,,,,,,,,,,,,,,,,,,,,,,,,,,,,
1,31552,30560,30540,30188,31080,5971,11329,-1404,-2343,0,-434,1709863211.6257257,0,18578,18590,18592,18518,18410,18344,18408,18490,16858,496,74,16,-5421,-14838,6499,0,0,0,1709863211.6404853,1,18097,18033,17962,18006,18047,18051,18073,18092,13289,208,109,37,2037,-15608,4267,0,0,0,1709863211.6404853,2,12648,12679,12705,12715,12731,12727,12692,12648,36009,166,46,1,-934,15905,-349,0,0,0,1709863211.6404853,3,,,,,,,,,,,,,,,,,0,0,1709863211.6404853,4,0,0,0,0,0,0,0,0,0,0,0,0,Attribute not found,Attribute not found,Attribute not found,0,0,0,1709863211.6404853,,,,,,,,,,,,,,,,,,,,,,,,,,,,,,,,,,,,,,,,,,,,,,,,,,,,,,,,,,,,
1,31556,30624,29056,30212,31056,5402,15677,-4353,-2327,0,-432,1709863211.7339444,0,18038,18029,18021,18018,18028,18044,18059,18045,13210,70,17,8,-6770,-14194,6324,0,0,0,1709863212,1,18088,18146,18207,18224,18247,18237,18208,18186,14471,253,84,76,1644,-15623,4509,0,0,0,1709863212,2,12563,12574,12569,12591,12588,12575,12569,12569,35062,43,17,17,-906,15555,-1143,0,0,0,1709863212,3,,,,,,,,,,,,,,,,,0,0,1709863212,4,0,0,0,0,0,0,0,0,0,0,0,0,Attribute not found,Attribute not found,Attribute not found,0,0,0,1709863212,,,,,,,,,,,,,,,,,,,,,,,,,,,,,,,,,,,,,,,,,,,,,,,,,,,,,,,,,,,,
1,31556,30652,29496,30228,31052,7044,13880,-4095,-2353,0,-456,1709863211.8388805,0,17503,17493,17490,17463,17428,17456,17504,17499,8764,127,64,27,-4587,-14462,8006,0,0,0,1709863211.8533785,1,18264,18314,18337,18309,18284,18264,18243,18256,15199,168,34,27,2224,-16158,4662,0,0,0,1709863211.8533785,2,12588,12596,12580,12568,12559,12552,12544,12523,34974,102,61,40,-796,16717,-2031,0,0,0,1709863211.8533785,3,,,,,,,,,,,,,,,,,0,0,1709863211.8533785,4,0,0,0,0,0,0,0,0,0,0,0,0,Attribute not found,Attribute not found,Attribute not found,0,0,0,1709863211.8533785,,,,,,,,,,,,,,,,,,,,,,,,,,,,,,,,,,,,,,,,,,,,,,,,,,,,,,,,,,,,
1,31500,30656,30580,30092,31076,4549,12848,-797,-2329,0,-433,1709863211.9406524,0,17563,17621,17584,17481,17392,17342,17287,17257,8455,685,240,144,-5565,-14134,6941,0,0,0,1709863211.9546828,1,18206,18166,18128,18147,18191,18237,18251,18226,14480,229,34,19,1114,-15629,4086,0,0,0,1709863211.9546828,2,12588,12658,12547,12364,12183,12065,12087,12109,33065,1239,285,216,311,16352,-2598,0,0,0,1709863211.9546828,3,,,,,,,,,,,,,,,,,0,0,1709863211.9546828,4,0,0,0,0,0,0,0,0,0,0,0,0,Attribute not found,Attribute not found,Attribute not found,0,0,0,1709863211.9546828,,,,,,,,,,,,,,,,,,,,,,,,,,,,,,,,,,,,,,,,,,,,,,,,,,,,,,,,,,,,
1,31588,29336,30596,30088,31000,6206,14743,-4824,-2303,0,-417,1709863212.0454798,0,17816,17770,17896,18144,18299,18302,18126,17903,13184,1118,96,68,-3940,-14952,6214,0,0,0,1709863212.0601947,1,17960,17824,17738,17691,17626,17634,17660,17656,10717,502,218,238,2065,-15667,4118,0,0,0,1709863212.0601947,2,12878,13082,13242,13264,12945,12472,12134,12578,37058,2028,531,192,-2916,16121,-25,0,0,0,1709863212.0601947,3,,,,,,,,,,,,,,,,,0,0,1709863212.0601947,4,0,0,0,0,0,0,0,0,0,0,0,0,Attribute not found,Attribute not found,Attribute not found,0,0,0,1709863212.0601947,,,,,,,,,,,,,,,,,,,,,,,,,,,,,,,,,,,,,,,,,,,,,,,,,,,,,,,,,,,,
1,31624,28308,30636,30152,31084,5362,16137,-5008,-2307,0,-416,1709863212.1510792,0,18500,18494,18504,18479,18451,18453,18480,18485,16774,95,37,15,-4792,-14401,6890,0,0,0,1709863212.1649206,1,17609,17626,17639,17668,17695,17716,17746,17774,10401,256,128,102,2202,-16126,4371,0,0,0,1709863212.1649206,2,12691,12687,12691,12719,12717,12731,12723,12733,36156,86,34,10,-2313,16935,-1401,0,0,0,1709863212.1649206,3,,,,,,,,,,,,,,,,,0,0,1709863212.1649206,4,0,0,0,0,0,0,0,0,0,0,0,0,Attribute not found,Attribute not found,Attribute not found,0,0,0,1709863212.1649206,,,,,,,,,,,,,,,,,,,,,,,,,,,,,,,,,,,,,,,,,,,,,,,,,,,,,,,,,,,,
1,31468,30608,30540,30144,31084,4348,11521,-2773,-2322,0,-414,1709863212.2483637,0,18752,18770,18800,18779,18786,18837,18909,18939,19500,271,203,112,-5410,-14575,6386,0,0,0,1709863212.2633142,1,17812,17770,17730,17701,17643,17646,17674,17679,10583,288,62,107,1483,-15964,3415,0,0,0,1709863212.2633142,2,12646,12642,12617,12612,12607,12600,12617,12633,35438,84,19,15,-711,16052,-2114,0,0,0,1709863212.2633142,3,,,,,,,,,,,,,,,,,0,0,1709863212.2633142,4,0,0,0,0,0,0,0,0,0,0,0,0,Attribute not found,Attribute not found,Attribute not found,0,0,0,1709863212.2633142,,,,,,,,,,,,,,,,,,,,,,,,,,,,,,,,,,,,,,,,,,,,,,,,,,,,,,,,,,,,
1,31212,30596,30516,30144,30988,8594,12737,-3839,-2291,0,-391,1709863212.3479028,0,18775,18703,18418,18215,18267,18332,18400,18500,16538,975,390,61,-5345,-13096,6646,0,0,0,1709863212.3612618,1,17762,17762,17486,17161,17206,17699,18097,18114,10215,1778,642,163,1489,-15586,4220,0,0,0,1709863212.3612618,2,12332,12280,12323,12381,12356,12422,12496,12465,33519,339,194,21,555,15353,-2752,0,0,0,1709863212.3612618,3,,,,,,,,,,,,,,,,,0,0,1709863212.3612618,4,0,0,0,0,0,0,0,0,0,0,0,0,Attribute not found,Attribute not found,Attribute not found,0,0,0,1709863212.3612618,,,,,,,,,,,,,,,,,,,,,,,,,,,,,,,,,,,,,,,,,,,,,,,,,,,,,,,,,,,,
1,28756,29936,30668,30184,31072,5637,15378,-3314,-2285,0,-390,1709863212.4433436,0,17665,17708,17783,17866,18013,18287,18503,18487,13240,1600,705,398,-7515,-14885,7821,0,0,0,1709863212.4568458,1,17896,17973,18042,18058,18060,18116,18149,18083,13305,334,240,81,-916,-16759,4147,0,0,0,1709863212.4568458,2,12577,12592,12617,12590,12559,12529,12504,12489,34921,229,44,44,-89,16428,-926,0,0,0,1709863212.4568458,3,,,,,,,,,,,,,,,,,0,0,1709863212.4568458,4,0,0,0,0,0,0,0,0,0,0,0,0,Attribute not found,Attribute not found,Attribute not found,0,0,0,1709863212.4568458,,,,,,,,,,,,,,,,,,,,,,,,,,,,,,,,,,,,,,,,,,,,,,,,,,,,,,,,,,,,
1,29528,30280,30624,30172,31036,5627,14835,-3845,-2277,0,-384,1709863212.5416367,0,17650,17589,17591,17614,17636,17654,17682,17710,10054,207,82,24,-5743,-14652,6948,0,0,0,1709863212.5558991,1,18321,18433,18445,18418,18367,18361,18416,18454,16143,62,189,122,925,-16171,4220,0,0,0,1709863212.5558991,2,12545,12606,12657,12673,12610,12568,12549,12553,35225,251,72,7,404,16467,-1701,0,0,0,1709863212.5558991,3,,,,,,,,,,,,,,,,,0,0,1709863212.5558991,4,0,0,0,0,0,0,0,0,0,0,0,0,Attribute not found,Attribute not found,Attribute not found,0,0,0,1709863212.5558991,,,,,,,,,,,,,,,,,,,,,,,,,,,,,,,,,,,,,,,,,,,,,,,,,,,,,,,,,,,,
1,31500,30572,30548,30152,30992,3234,14014,-1196,-2289,0,-395,1709863212.6405454,0,17823,17815,17731,17653,17542,17514,17444,17408,9858,745,328,260,-4469,-14250,7031,0,0,0,1709863212.6548483,1,18502,18523,18541,18613,18692,18704,18589,18530,17622,394,105,21,3182,-15848,3983,0,0,0,1709863212.6548483,2,12370,12705,12897,12922,12534,12725,12724,12340,35681,820,736,344,1196,16623,-5188,0,0,0,1709863212.6548483,3,,,,,,,,,,,,,,,,,0,0,1709863212.6548483,4,0,0,0,0,0,0,0,0,0,0,0,0,Attribute not found,Attribute not found,Attribute not found,0,0,0,1709863212.6548483,,,,,,,,,,,,,,,,,,,,,,,,,,,,,,,,,,,,,,,,,,,,,,,,,,,,,,,,,,,,
1,31668,27660,30732,30160,31100,1607,15463,-1552,-2253,0,-379,1709863212.7381716,0,17596,17623,17626,17622,17644,17663,17697,17676,10075,142,83,58,-6817,-13654,8218,0,0,0,1709863212.750983,1,18540,18609,18573,18511,18434,18391,18325,18250,16561,591,250,163,1494,-17253,3935,0,0,0,1709863212.750983,2,12866,13004,12973,12866,12832,12889,12877,12840,37611,218,240,29,223,17898,-2127,0,0,0,1709863212.750983,3,,,,,,,,,,,,,,,,,0,0,1709863212.750983,4,0,0,0,0,0,0,0,0,0,0,0,0,Attribute not found,Attribute not found,Attribute not found,0,0,0,1709863212.750983,,,,,,,,,,,,,,,,,,,,,,,,,,,,,,,,,,,,,,,,,,,,,,,,,,,,,,,,,,,,
1,31736,26544,30744,30128,31088,5573,16265,-6015,-2265,0,-390,1709863212.8350644,0,18207,18184,18204,18221,18191,18160,18125,18141,14361,154,71,55,-3619,-14617,6626,0,0,0,1709863212.8490906,1,18102,18057,18053,18103,18118,18142,18177,18204,13884,255,108,28,3483,-16249,4273,0,0,0,1709863212.8490906,2,12627,12618,12618,12636,12639,12637,12640,12647,35526,46,29,6,-3026,17025,-931,0,0,0,1709863212.8490906,3,,,,,,,,,,,,,,,,,0,0,1709863212.8490906,4,0,0,0,0,0,0,0,0,0,0,0,0,Attribute not found,Attribute not found,Attribute not found,0,0,0,1709863212.8490906,,,,,,,,,,,,,,,,,,,,,,,,,,,,,,,,,,,,,,,,,,,,,,,,,,,,,,,,,,,,
1,31504,30616,30572,30084,31056,3618,12404,-384,-2293,0,-395,1709863212.9323866,0,18576,18605,18644,18656,18676,18667,18646,18544,17942,225,81,43,-5921,-13912,8076,0,0,0,1709863212.9470303,1,18010,18008,17989,17964,17952,17954,17963,17941,12709,113,57,45,1626,-16356,4449,0,0,0,1709863212.9470303,2,12481,12490,12502,12523,12529,12535,12553,12572,34648,125,83,53,-12,16396,-2895,0,0,0,1709863212.9470303,3,,,,,,,,,,,,,,,,,0,0,1709863212.9470303,4,0,0,0,0,0,0,0,0,0,0,0,0,Attribute not found,Attribute not found,Attribute not found,0,0,0,1709863212.9470303,,,,,,,,,,,,,,,,,,,,,,,,,,,,,,,,,,,,,,,,,,,,,,,,,,,,,,,,,,,,
1,31552,30580,29812,30152,31012,4556,15099,-1255,-2282,0,-383,1709863213.025957,0,18451,18479,18445,18393,18396,18447,18546,18609,16694,326,162,123,-3537,-13843,6356,0,0,0,1709863213,1,17424,17471,17500,17489,17481,17416,17327,17314,8350,364,114,29,2310,-15540,4257,0,0,0,1709863213,2,12425,12370,12381,12384,12380,12390,12358,12357,33509,30,68,80,-637,15767,-2402,0,0,0,1709863213,3,,,,,,,,,,,,,,,,,0,0,1709863213,4,0,0,0,0,0,0,0,0,0,0,0,0,Attribute not found,Attribute not found,Attribute not found,0,0,0,1709863213,,,,,,,,,,,,,,,,,,,,,,,,,,,,,,,,,,,,,,,,,,,,,,,,,,,,,,,,,,,,
1,31524,30764,26960,30284,31068,3547,16392,-3130,-2277,0,-375,1709863213.124943,0,18011,17993,17996,17987,17954,17924,17940,17975,12708,149,53,16,-4718,-14505,7011,0,0,0,1709863213.1388667,1,17247,17229,17225,17251,17274,17297,17340,17328,7119,218,68,35,1886,-15946,4791,0,0,0,1709863213.1388667,2,12310,12304,12291,12289,12275,12278,12307,12308,32826,67,19,21,-2497,17284,-939,0,0,0,1709863213.1388667,3,,,,,,,,,,,,,,,,,0,0,1709863213.1388667,4,0,0,0,0,0,0,0,0,0,0,0,0,Attribute not found,Attribute not found,Attribute not found,0,0,0,1709863213.1388667,,,,,,,,,,,,,,,,,,,,,,,,,,,,,,,,,,,,,,,,,,,,,,,,,,,,,,,,,,,,
1,31540,30580,30440,30092,31032,2959,16135,-320,-2278,0,-371,1709863213.2279925,0,17750,17715,17713,17744,17742,17696,17706,17725,10719,34,93,21,-3369,-14498,6555,0,0,0,1709863213.2415214,1,17523,17592,17595,17587,17564,17508,17480,17416,9193,312,97,68,2310,-15770,4384,0,0,0,1709863213.2415214,2,12322,12311,12304,12305,12314,12318,12304,12343,32985,43,33,34,-2417,17050,-1347,0,0,0,1709863213.2415214,3,,,,,,,,,,,,,,,,,0,0,1709863213.2415214,4,0,0,0,0,0,0,0,0,0,0,0,0,Attribute not found,Attribute not found,Attribute not found,0,0,0,1709863213.2415214,,,,,,,,,,,,,,,,,,,,,,,,,,,,,,,,,,,,,,,,,,,,,,,,,,,,,,,,,,,,
1,31500,30584,30576,29836,31032,3651,14733,506,-2280,0,-372,1709863213.3313937,0,17568,17594,17626,17710,17767,17751,17766,17765,10475,396,141,127,-5154,-13959,6574,0,0,0,1709863213.3450632,1,18041,18034,18049,18052,18023,17996,18045,18144,13312,115,168,85,1471,-15388,4166,0,0,0,1709863213.3450632,2,12530,12520,12492,12486,12477,12477,12467,12466,34378,98,65,41,-1372,16335,-1287,0,0,0,1709863213.3450632,3,,,,,,,,,,,,,,,,,0,0,1709863213.3450632,4,0,0,0,0,0,0,0,0,0,0,0,0,Attribute not found,Attribute not found,Attribute not found,0,0,0,1709863213.3450632,,,,,,,,,,,,,,,,,,,,,,,,,,,,,,,,,,,,,,,,,,,,,,,,,,,,,,,,,,,,
1,31548,30588,30704,27388,30960,3530,16553,-3063,-2264,0,-368,1709863213.4328632,0,17928,17959,17988,18026,18031,17983,17951,17906,12700,230,22,30,-5537,-14519,6821,0,0,0,1709863213.4460692,1,18535,18579,18559,18522,18490,18424,18419,18468,16924,310,48,27,1561,-15919,4676,0,0,0,1709863213.4460692,2,12614,12634,12642,12670,12697,12726,12732,12696,35875,216,63,36,-2396,16450,-1192,0,0,0,1709863213.4460692,3,,,,,,,,,,,,,,,,,0,0,1709863213.4460692,4,0,0,0,0,0,0,0,0,0,0,0,0,Attribute not found,Attribute not found,Attribute not found,0,0,0,1709863213.4460692,,,,,,,,,,,,,,,,,,,,,,,,,,,,,,,,,,,,,,,,,,,,,,,,,,,,,,,,,,,,
1,31576,30528,30724,26732,30968,5187,16025,-3706,-2271,0,-371,1709863213.5325475,0,18336,18341,18352,18336,18333,18337,18331,18331,15625,27,17,15,-5015,-14403,6798,0,0,0,1709863213.546885,1,18680,18694,18704,18709,18689,18665,18650,18649,18368,120,15,15,2096,-16092,4613,0,0,0,1709863213.546885,2,12694,12703,12699,12688,12684,12690,12670,12667,35959,53,39,16,-1915,16430,-1427,0,0,0,1709863213.546885,3,,,,,,,,,,,,,,,,,0,0,1709863213.546885,4,0,0,0,0,0,0,0,0,0,0,0,0,Attribute not found,Attribute not found,Attribute not found,0,0,0,1709863213.546885,,,,,,,,,,,,,,,,,,,,,,,,,,,,,,,,,,,,,,,,,,,,,,,,,,,,,,,,,,,,
1,31512,30580,30536,29768,31012,2809,12769,-2785,-2284,0,-373,1709863213.6354551,0,18496,18468,18425,18366,18284,18270,18270,18334,15841,457,93,94,-5267,-13968,6719,0,0,0,1709863213.6492546,1,18463,18413,18446,18464,18465,18451,18441,18481,16552,37,90,45,2616,-15958,4300,0,0,0,1709863213.6492546,2,12558,12559,12571,12553,12545,12522,12509,12511,34792,118,28,17,-1636,15921,-1606,0,0,0,1709863213.6492546,3,,,,,,,,,,,,,,,,,0,0,1709863213.6492546,4,0,0,0,0,0,0,0,0,0,0,0,0,Attribute not found,Attribute not found,Attribute not found,0,0,0,1709863213.6492546,,,,,,,,,,,,,,,,,,,,,,,,,,,,,,,,,,,,,,,,,,,,,,,,,,,,,,,,,,,,
1,31548,30596,30648,29520,29628,6626,16065,-3508,-2314,0,-403,1709863213.736434,0,18110,18103,18079,18057,18065,18110,18114,18085,13651,84,73,31,-5303,-14274,7433,0,0,0,1709863213.7511542,1,17852,17866,17882,17856,17828,17830,17840,17846,11728,85,42,11,474,-15357,4211,0,0,0,1709863213.7511542,2,12411,12412,12422,12444,12477,12470,12443,12422,33965,131,28,10,-1773,16230,-850,0,0,0,1709863213.7511542,3,,,,,,,,,,,,,,,,,0,0,1709863213.7511542,4,0,0,0,0,0,0,0,0,0,0,0,0,Attribute not found,Attribute not found,Attribute not found,0,0,0,1709863213.7511542,,,,,,,,,,,,,,,,,,,,,,,,,,,,,,,,,,,,,,,,,,,,,,,,,,,,,,,,,,,,
1,31532,30632,30536,29668,30648,2439,13488,2091,-2313,0,-395,1709863213.839082,0,17773,17780,17790,17761,17749,17742,17715,17689,10927,152,73,48,-4865,-14227,7214,0,0,0,1709863213.8532922,1,17504,17502,17531,17549,17520,17479,17430,17445,8888,204,64,42,2181,-15846,4057,0,0,0,1709863213.8532922,2,12335,12324,12328,12318,12330,12334,12326,12334,33093,18,12,20,-2172,16135,-1066,0,0,0,1709863213.8532922,3,,,,,,,,,,,,,,,,,0,0,1709863213.8532922,4,0,0,0,0,0,0,0,0,0,0,0,0,Attribute not found,Attribute not found,Attribute not found,0,0,0,1709863213.8532922,,,,,,,,,,,,,,,,,,,,,,,,,,,,,,,,,,,,,,,,,,,,,,,,,,,,,,,,,,,,
1,31584,30576,30584,29980,31116,3743,14066,-123,-2301,0,-387,1709863213.940588,0,17823,17850,17772,17667,17614,17607,17621,17589,10471,498,205,119,-5138,-14343,7040,0,0,0,1709863213.955764,1,17466,17465,17458,17474,17505,17527,17523,17518,8864,149,10,28,2527,-16190,4236,0,0,0,1709863213.955764,2,12473,12464,12433,12404,12398,12415,12442,12465,33958,153,10,2,-1302,16873,-1731,0,0,0,1709863213.955764,3,,,,,,,,,,,,,,,,,0,0,1709863213.955764,4,0,0,0,0,0,0,0,0,0,0,0,0,Attribute not found,Attribute not found,Attribute not found,0,0,0,1709863213.955764,,,,,,,,,,,,,,,,,,,,,,,,,,,,,,,,,,,,,,,,,,,,,,,,,,,,,,,,,,,,
1,31560,30628,30716,26732,31052,4001,15596,-2158,-2281,0,-378,1709863214.043317,0,17763,17777,17770,17784,17803,17813,17772,17715,11125,116,94,42,-4691,-14007,6972,0,0,0,1709863214.058443,1,17754,17749,17747,17758,17789,17786,17769,17795,11075,82,32,46,2531,-15750,4328,0,0,0,1709863214.058443,2,12537,12529,12565,12583,12588,12573,12562,12544,34945,109,25,10,-1689,16048,-1407,0,0,0,1709863214.058443,3,,,,,,,,,,,,,,,,,0,0,1709863214.058443,4,0,0,0,0,0,0,0,0,0,0,0,0,Attribute not found,Attribute not found,Attribute not found,0,0,0,1709863214.058443,,,,,,,,,,,,,,,,,,,,,,,,,,,,,,,,,,,,,,,,,,,,,,,,,,,,,,,,,,,,
1,31532,30708,30788,26260,30992,5425,15902,-4929,-2284,0,-384,1709863214.1433976,0,18324,18344,18372,18371,18357,18356,18360,18353,15765,56,56,14,-5862,-14247,6285,0,0,0,1709863214.1571763,1,18216,18237,18232,18207,18201,18223,18224,18235,14703,44,42,23,1247,-15560,4928,0,0,0,1709863214.1571763,2,12718,12730,12716,12737,12753,12764,12765,12752,36399,96,11,25,-2379,15898,-948,0,0,0,1709863214.1571763,3,,,,,,,,,,,,,,,,,0,0,1709863214.1571763,4,0,0,0,0,0,0,0,0,0,0,0,0,Attribute not found,Attribute not found,Attribute not found,0,0,0,1709863214.1571763,,,,,,,,,,,,,,,,,,,,,,,,,,,,,,,,,,,,,,,,,,,,,,,,,,,,,,,,,,,,
1,31556,30572,30624,29312,31060,5130,15328,-4050,-2269,0,-361,1709863214.2399592,0,18672,18698,18668,18638,18633,18647,18656,18692,18232,113,24,37,-4927,-14220,6551,0,0,0,1709863214.2550285,1,18566,18583,18601,18583,18568,18543,18513,18530,17415,154,23,23,1836,-15879,4305,0,0,0,1709863214.2550285,2,12742,12752,12737,12736,12725,12711,12688,12693,36248,109,54,21,-1642,16157,-1136,0,0,0,1709863214.2550285,3,,,,,,,,,,,,,,,,,0,0,1709863214.2550285,4,0,0,0,0,0,0,0,0,0,0,0,0,Attribute not found,Attribute not found,Attribute not found,0,0,0,1709863214.2550285,,,,,,,,,,,,,,,,,,,,,,,,,,,,,,,,,,,,,,,,,,,,,,,,,,,,,,,,,,,,
1,31536,30684,30436,29952,31056,4910,14905,-2215,-2248,0,-340,1709863214.340507,0,18199,18198,18178,18184,18186,18251,18312,18388,14824,337,161,105,-4549,-14669,6974,0,0,0,1709863214.3540375,1,18443,18401,18395,18401,18426,18380,18351,18394,16119,69,123,25,2586,-15987,4962,0,0,0,1709863214.3540375,2,12630,12611,12583,12611,12646,12632,12604,12604,35384,47,93,11,-1925,16519,-2470,0,0,0,1709863214.3540375,3,,,,,,,,,,,,,,,,,0,0,1709863214.3540375,4,0,0,0,0,0,0,0,0,0,0,0,0,Attribute not found,Attribute not found,Attribute not found,0,0,0,1709863214.3540375,,,,,,,,,,,,,,,,,,,,,,,,,,,,,,,,,,,,,,,,,,,,,,,,,,,,,,,,,,,,
1,31552,30636,28696,30036,31036,7307,15633,-6388,-2250,0,-352,1709863214.4449787,0,17765,17700,17683,17651,17583,17589,17612,17629,10140,295,53,121,-5479,-14269,5535,0,0,0,1709863214.457991,1,17944,17958,17984,17988,17985,17942,17889,17847,12465,243,85,50,1042,-15139,4815,0,0,0,1709863214.457991,2,12357,12358,12383,12380,12373,12369,12357,12367,33408,42,22,24,-1848,15108,-743,0,0,0,1709863214.457991,3,,,,,,,,,,,,,,,,,0,0,1709863214.457991,4,0,0,0,0,0,0,0,0,0,0,0,0,Attribute not found,Attribute not found,Attribute not found,0,0,0,1709863214.457991,,,,,,,,,,,,,,,,,,,,,,,,,,,,,,,,,,,,,,,,,,,,,,,,,,,,,,,,,,,,
1,31516,30648,28336,30120,31004,5988,15736,-5399,-2251,0,-351,1709863214.5459907,0,17357,17413,17421,17389,17363,17334,17281,17254,7740,294,105,35,-5309,-13979,6992,0,0,0,1709863214.560646,1,17606,17628,17604,17597,17619,17640,17619,17608,9849,34,63,12,1556,-15571,4686,0,0,0,1709863214.560646,2,12311,12298,12287,12279,12267,12271,12273,12290,32740,75,18,17,-1519,15610,-1726,0,0,0,1709863214.560646,3,,,,,,,,,,,,,,,,,0,0,1709863214.560646,4,0,0,0,0,0,0,0,0,0,0,0,0,Attribute not found,Attribute not found,Attribute not found,0,0,0,1709863214.560646,,,,,,,,,,,,,,,,,,,,,,,,,,,,,,,,,,,,,,,,,,,,,,,,,,,,,,,,,,,,
1,31532,30612,30580,30024,31020,5855,14438,-3812,-2255,0,-344,1709863214.6523867,0,17560,17574,17600,17622,17619,17611,17573,17512,9599,180,51,51,-5857,-13922,7015,0,0,0,1709863214.6660383,1,17649,17657,17689,17689,17673,17658,17621,17609,10173,148,20,35,1156,-15932,4621,0,0,0,1709863214.6660383,2,12258,12261,12215,12119,12037,12045,12164,12325,31887,522,161,88,-1354,15317,-1870,0,0,0,1709863214.6660383,3,,,,,,,,,,,,,,,,,0,0,1709863214.6660383,4,0,0,0,0,0,0,0,0,0,0,0,0,Attribute not found,Attribute not found,Attribute not found,0,0,0,1709863214.6660383,,,,,,,,,,,,,,,,,,,,,,,,,,,,,,,,,,,,,,,,,,,,,,,,,,,,,,,,,,,,
1,31548,29716,30556,30004,31056,9525,13037,-4952,-2231,0,-320,1709863215,0,17628,17699,17789,17917,17924,17985,18115,18197,12182,785,555,301,-6250,-14519,4908,0,0,0,1709863214.767891,1,17832,17838,17679,17588,17557,17579,17638,17630,10269,525,211,128,1224,-14321,4725,0,0,0,1709863214.767891,2,12449,12192,12167,12031,12004,12095,12444,12978,32824,1473,739,437,-4140,14572,-27,0,0,0,1709863214.767891,3,,,,,,,,,,,,,,,,,0,0,1709863214.767891,4,0,0,0,0,0,0,0,0,0,0,0,0,Attribute not found,Attribute not found,Attribute not found,0,0,0,1709863214.767891,,,,,,,,,,,,,,,,,,,,,,,,,,,,,,,,,,,,,,,,,,,,,,,,,,,,,,,,,,,,
1,31720,26548,30680,30052,31032,6520,14790,-5443,-2201,0,-299,1709863214.855741,0,18437,18416,18369,18355,18379,18424,18459,18452,16219,203,35,16,-4466,-14847,5273,0,0,0,1709863214.869867,1,18057,18061,18050,18042,18051,18044,18041,18047,13321,27,23,9,2141,-15664,4984,0,0,0,1709863214.869867,2,12798,12814,12805,12817,12797,12794,12790,12796,36875,43,4,14,-3900,15740,-353,0,0,0,1709863214.869867,3,,,,,,,,,,,,,,,,,0,0,1709863214.869867,4,0,0,0,0,0,0,0,0,0,0,0,0,Attribute not found,Attribute not found,Attribute not found,0,0,0,1709863214.869867,,,,,,,,,,,,,,,,,,,,,,,,,,,,,,,,,,,,,,,,,,,,,,,,,,,,,,,,,,,,
1,31508,30300,30508,30024,31052,4408,12401,69,-2209,0,-295,1709863214.9588456,0,18657,18719,18737,18697,18639,18589,18559,18553,18078,371,58,32,-5890,-14129,7740,0,0,0,1709863214.9733067,1,18447,18436,18414,18407,18435,18461,18459,18449,16436,95,41,2,2893,-16270,4724,0,0,0,1709863214.9733067,2,12709,12750,12793,12810,12813,12855,12846,12870,36910,217,138,96,-283,16894,-2908,0,0,0,1709863214.9733067,3,,,,,,,,,,,,,,,,,0,0,1709863214.9733067,4,0,0,0,0,0,0,0,0,0,0,0,0,Attribute not found,Attribute not found,Attribute not found,0,0,0,1709863214.9733067,,,,,,,,,,,,,,,,,,,,,,,,,,,,,,,,,,,,,,,,,,,,,,,,,,,,,,,,,,,,
1,31528,30556,30568,30128,31052,5794,14680,-795,-2212,0,-291,1709863215,0,18098,18162,18191,18142,18086,18120,18205,18305,14237,185,268,150,-4220,-14202,7972,0,0,0,1709863215.0714757,1,18303,18312,18315,18312,18292,18244,18136,18091,14933,395,210,121,1554,-15958,3420,0,0,0,1709863215.0714757,2,12552,12577,12533,12532,12545,12567,12586,12551,34907,65,64,48,16,16352,-3512,0,0,0,1709863215.0714757,3,,,,,,,,,,,,,,,,,0,0,1709863215.0714757,4,0,0,0,0,0,0,0,0,0,0,0,0,Attribute not found,Attribute not found,Attribute not found,0,0,0,1709863215.0714757,,,,,,,,,,,,,,,,,,,,,,,,,,,,,,,,,,,,,,,,,,,,,,,,,,,,,,,,,,,,
1,29224,30108,30624,30156,31012,4956,16161,-1465,-2166,0,-256,1709863215.1578357,0,17178,17267,17404,17491,17478,17510,17556,17487,8299,573,364,126,-5655,-14281,7215,0,0,0,1709863215.1714475,1,17535,17686,17851,17942,17964,18000,18022,17972,11900,753,438,239,1386,-16397,3977,0,0,0,1709863215.1714475,2,12345,12338,12298,12349,12471,12587,12740,12887,34479,1001,382,349,-183,16946,-3047,0,0,0,1709863215.1714475,3,,,,,,,,,,,,,,,,,0,0,1709863215.1714475,4,0,0,0,0,0,0,0,0,0,0,0,0,Attribute not found,Attribute not found,Attribute not found,0,0,0,1709863215.1714475,,,,,,,,,,,,,,,,,,,,,,,,,,,,,,,,,,,,,,,,,,,,,,,,,,,,,,,,,,,,
1,29888,29568,30688,30164,31044,6816,14677,-3732,-2173,0,-269,1709863215.2549229,0,17315,17341,17341,17333,17315,17283,17262,17279,7397,158,29,2,-5796,-14313,6720,0,0,0,1709863215.271171,1,17931,17944,17905,17843,17810,17755,17718,17742,11576,432,164,61,1818,-15817,4600,0,0,0,1709863215.271171,2,12448,12445,12393,12301,12152,12090,12136,12255,32684,746,74,81,-1045,16221,-1617,0,0,0,1709863215.271171,3,,,,,,,,,,,,,,,,,0,0,1709863215.271171,4,0,0,0,0,0,0,0,0,0,0,0,0,Attribute not found,Attribute not found,Attribute not found,0,0,0,1709863215.271171,,,,,,,,,,,,,,,,,,,,,,,,,,,,,,,,,,,,,,,,,,,,,,,,,,,,,,,,,,,,
1,31548,30372,30560,30092,31064,5648,13939,-2782,-2208,0,-299,1709863215.3559914,0,17674,17750,17811,17854,17753,17602,17540,17566,10478,606,101,42,-5017,-14069,7457,0,0,0,1709863215.3689513,1,17732,17761,17681,17660,17706,17794,17873,17903,11038,424,116,122,1471,-15648,4072,0,0,0,1709863215.3689513,2,12001,12112,12066,11830,11623,11577,11490,11520,28683,1290,345,219,-1403,16466,-2125,0,0,0,1709863215.3689513,3,,,,,,,,,,,,,,,,,0,0,1709863215.3689513,4,0,0,0,0,0,0,0,0,0,0,0,0,Attribute not found,Attribute not found,Attribute not found,0,0,0,1709863215.3689513,,,,,,,,,,,,,,,,,,,,,,,,,,,,,,,,,,,,,,,,,,,,,,,,,,,,,,,,,,,,
1,31576,29168,30604,30176,31032,5487,14631,-3316,-2191,0,-297,1709863215.4534137,0,18698,18711,18531,18248,18086,17945,17942,18053,15142,1625,471,227,-2202,-14314,7028,0,0,0,1709863215.466908,1,18111,18194,18056,17929,17802,17638,17503,17386,11547,1367,626,374,4696,-16978,3420,0,0,0,1709863215.466908,2,12769,10777,10609,11115,11944,12665,12751,12579,29673,4542,1376,1147,-2378,16412,-592,0,0,0,1709863215.466908,3,,,,,,,,,,,,,,,,,0,0,1709863215.466908,4,0,0,0,0,0,0,0,0,0,0,0,0,Attribute not found,Attribute not found,Attribute not found,0,0,0,1709863215.466908,,,,,,,,,,,,,,,,,,,,,,,,,,,,,,,,,,,,,,,,,,,,,,,,,,,,,,,,,,,,
1,31728,26968,30636,30104,31052,6165,16019,-5298,-2186,0,-301,1709863215.5568805,0,18570,18584,18593,18564,18551,18605,18695,18730,17820,263,197,88,-6086,-15027,6348,0,0,0,1709863215.5700018,1,18077,18086,18008,17976,18038,18088,18088,18086,13375,196,113,37,1103,-15958,4864,0,0,0,1709863215.5700018,2,12760,12777,12796,12826,12802,12785,12789,12791,36789,76,59,16,-3052,15953,-772,0,0,0,1709863215.5700018,3,,,,,,,,,,,,,,,,,0,0,1709863215.5700018,4,0,0,0,0,0,0,0,0,0,0,0,0,Attribute not found,Attribute not found,Attribute not found,0,0,0,1709863215.5700018,,,,,,,,,,,,,,,,,,,,,,,,,,,,,,,,,,,,,,,,,,,,,,,,,,,,,,,,,,,,
1,31632,29940,30596,30124,30988,6072,16799,-4377,-2214,0,-314,1709863215.6531672,0,18777,18799,18825,18833,18842,18811,18784,18783,19382,128,11,25,-4206,-13892,7119,0,0,0,1709863215.6659343,1,18353,18369,18360,18374,18397,18396,18372,18353,15902,79,42,12,3120,-15479,4116,0,0,0,1709863215.6659343,2,12784,12771,12761,12793,12811,12817,12819,12798,36818,109,15,22,-2343,16270,-1815,0,0,0,1709863215.6659343,3,,,,,,,,,,,,,,,,,0,0,1709863215.6659343,4,0,0,0,0,0,0,0,0,0,0,0,0,Attribute not found,Attribute not found,Attribute not found,0,0,0,1709863215.6659343,,,,,,,,,,,,,,,,,,,,,,,,,,,,,,,,,,,,,,,,,,,,,,,,,,,,,,,,,,,,
1,31516,30556,30392,30072,31044,4704,14449,-1877,-2199,0,-305,1709863215.7510245,0,18134,18137,18075,18036,18129,18283,18375,18480,14577,748,210,236,-2864,-14514,6782,0,0,0,1709863215.763591,1,18351,18363,18388,18398,18388,18296,18245,18193,15550,361,125,78,3018,-14866,4135,0,0,0,1709863215.763591,2,12547,12574,12597,12600,12540,12476,12469,12451,34718,304,21,63,-3042,15974,-1547,0,0,0,1709863215.763591,3,,,,,,,,,,,,,,,,,0,0,1709863215.763591,4,0,0,0,0,0,0,0,0,0,0,0,0,Attribute not found,Attribute not found,Attribute not found,0,0,0,1709863215.763591,,,,,,,,,,,,,,,,,,,,,,,,,,,,,,,,,,,,,,,,,,,,,,,,,,,,,,,,,,,,
1,31544,30772,27220,30252,31068,5801,15770,-3545,-2204,0,-312,1709863215.8507366,0,17531,17537,17542,17540,17538,17525,17514,17513,9168,58,15,3,-4280,-14218,7067,0,0,0,1709863215.863505,1,18208,18214,18199,18172,18147,18114,18093,18113,14188,236,76,32,2979,-16056,4212,0,0,0,1709863215.863505,2,12379,12392,12379,12395,12388,12381,12359,12350,33487,68,40,24,-1638,16839,-2377,0,0,0,1709863215.863505,3,,,,,,,,,,,,,,,,,0,0,1709863215.863505,4,0,0,0,0,0,0,0,0,0,0,0,0,Attribute not found,Attribute not found,Attribute not found,0,0,0,1709863215.863505,,,,,,,,,,,,,,,,,,,,,,,,,,,,,,,,,,,,,,,,,,,,,,,,,,,,,,,,,,,,
1,31484,30580,30352,30184,31064,5381,11228,-2149,-2223,0,-318,1709863215.9522722,0,17256,17280,17257,17220,17212,17215,17228,17240,6836,120,38,16,-4389,-14313,8469,0,0,0,1709863215.966172,1,18003,17968,17914,17880,17915,17953,17986,18008,12555,242,37,15,3509,-15979,4656,0,0,0,1709863215.966172,2,12327,12334,12310,12298,12304,12340,12339,12323,33039,62,55,11,-1203,16440,-2361,0,0,0,1709863215.966172,3,,,,,,,,,,,,,,,,,0,0,1709863215.966172,4,0,0,0,0,0,0,0,0,0,0,0,0,Attribute not found,Attribute not found,Attribute not found,0,0,0,1709863215.966172,,,,,,,,,,,,,,,,,,,,,,,,,,,,,,,,,,,,,,,,,,,,,,,,,,,,,,,,,,,,
1,31480,30580,30688,29848,31076,4915,13607,-1316,-2217,0,-314,1709863216.0508063,0,17517,17582,17594,17586,17558,17588,17647,17535,9535,84,173,84,-6080,-14106,6506,0,0,0,1709863216.0649786,1,17953,17878,17761,17688,17661,17656,17757,17865,11147,575,97,29,2582,-15627,4139,0,0,0,1709863216.0649786,2,12411,12391,12365,12358,12385,12448,12460,12409,33690,172,77,35,-566,15764,-2324,0,0,0,1709863216.0649786,3,,,,,,,,,,,,,,,,,0,0,1709863216.0649786,4,0,0,0,0,0,0,0,0,0,0,0,0,Attribute not found,Attribute not found,Attribute not found,0,0,0,1709863216.0649786,,,,,,,,,,,,,,,,,,,,,,,,,,,,,,,,,,,,,,,,,,,,,,,,,,,,,,,,,,,,
1,31596,30644,30740,26052,31016,3288,16642,-3458,-2185,0,-295,1709863216.1449142,0,17968,17965,17982,17996,18025,18083,18125,18138,13210,329,142,84,-5051,-14298,6960,0,0,0,1709863216.1580498,1,17699,17679,17697,17719,17707,17724,17773,17809,10735,173,140,44,1930,-15840,4264,0,0,0,1709863216.1580498,2,12604,12588,12553,12555,12546,12543,12560,12546,34958,89,47,55,-1308,16631,-1221,0,0,0,1709863216.1580498,3,,,,,,,,,,,,,,,,,0,0,1709863216.1580498,4,0,0,0,0,0,0,0,0,0,0,0,0,Attribute not found,Attribute not found,Attribute not found,0,0,0,1709863216.1580498,,,,,,,,,,,,,,,,,,,,,,,,,,,,,,,,,,,,,,,,,,,,,,,,,,,,,,,,,,,,
1,31552,30596,30712,26612,31020,5805,14374,-763,-2195,0,-294,1709863216.2414203,0,18760,18779,18749,18717,18688,18676,18673,18663,18633,215,79,51,-4132,-14384,7534,0,0,0,1709863216.2550414,1,17885,17865,17868,17904,17918,17938,18003,18081,12390,314,194,114,2763,-16223,4300,0,0,0,1709863216.2550414,2,12645,12675,12670,12679,12693,12708,12723,12738,35994,121,64,67,-1414,16509,-2406,0,0,0,1709863216.2550414,3,,,,,,,,,,,,,,,,,0,0,1709863216.2550414,4,0,0,0,0,0,0,0,0,0,0,0,0,Attribute not found,Attribute not found,Attribute not found,0,0,0,1709863216.2550414,,,,,,,,,,,,,,,,,,,,,,,,,,,,,,,,,,,,,,,,,,,,,,,,,,,,,,,,,,,,
1,31516,30584,30580,29960,31072,4395,14403,-978,-2190,0,-275,1709863216.3403916,0,18748,18778,18832,18881,18874,18835,18813,18808,19497,220,79,34,-4707,-14069,7387,0,0,0,1709863216.3529234,1,18255,18234,18177,18135,18142,18150,18166,18187,14374,211,82,20,3511,-16142,3848,0,0,0,1709863216.3529234,2,12635,12630,12624,12630,12632,12648,12649,12646,35558,49,6,4,-767,16434,-2949,0,0,0,1709863216.3529234,3,,,,,,,,,,,,,,,,,0,0,1709863216.3529234,4,0,0,0,0,0,0,0,0,0,0,0,0,Attribute not found,Attribute not found,Attribute not found,0,0,0,1709863216.3529234,,,,,,,,,,,,,,,,,,,,,,,,,,,,,,,,,,,,,,,,,,,,,,,,,,,,,,,,,,,,
1,31572,30604,30608,29836,30892,6417,14645,-3452,-2217,0,-303,1709863216.4370456,0,18368,18575,18673,18657,18638,18505,18345,18321,17010,766,102,91,-6839,-13884,5530,0,0,0,1709863216.4501934,1,18245,18275,18293,18290,18224,18100,18074,18109,14538,471,104,41,71,-14908,4875,0,0,0,1709863216.4501934,2,12520,12500,12492,12510,12515,12533,12544,12512,34590,78,11,38,-1689,15050,-459,0,0,0,1709863216.4501934,3,,,,,,,,,,,,,,,,,0,0,1709863216.4501934,4,0,0,0,0,0,0,0,0,0,0,0,0,Attribute not found,Attribute not found,Attribute not found,0,0,0,1709863216.4501934,,,,,,,,,,,,,,,,,,,,,,,,,,,,,,,,,,,,,,,,,,,,,,,,,,,,,,,,,,,,
1,31540,30588,30596,29728,29972,6892,15422,-3439,-2254,0,-336,1709863216.5319633,0,17825,17831,17796,17750,17739,17732,17742,17759,11102,200,59,13,-5267,-14570,6624,0,0,0,1709863216.5446904,1,18098,18125,18138,18135,18171,18192,18162,18139,14088,139,53,38,116,-15485,4563,0,0,0,1709863216.5446904,2,12435,12448,12466,12481,12467,12454,12444,12439,34098,81,19,3,-3119,15485,-475,0,0,0,1709863216.5446904,3,,,,,,,,,,,,,,,,,0,0,1709863216.5446904,4,0,0,0,0,0,0,0,0,0,0,0,0,Attribute not found,Attribute not found,Attribute not found,0,0,0,1709863216.5446904,,,,,,,,,,,,,,,,,,,,,,,,,,,,,,,,,,,,,,,,,,,,,,,,,,,,,,,,,,,,
1,31520,30524,30536,29792,30912,3425,14610,-2629,-2229,0,-307,1709863216.6301327,0,17478,17469,17458,17453,17446,17445,17446,17433,8556,55,34,34,-4338,-14420,7201,0,0,0,1709863216.641301,1,17954,17935,17923,17926,17930,17935,17939,17926,12396,28,28,28,2909,-16300,4144,0,0,0,1709863216.641301,2,12450,12458,12445,12439,12448,12464,12478,12463,34109,56,32,15,-2142,16644,-1604,0,0,0,1709863216.641301,3,,,,,,,,,,,,,,,,,0,0,1709863216.641301,4,0,0,0,0,0,0,0,0,0,0,0,0,Attribute not found,Attribute not found,Attribute not found,0,0,0,1709863216.641301,,,,,,,,,,,,,,,,,,,,,,,,,,,,,,,,,,,,,,,,,,,,,,,,,,,,,,,,,,,,
1,31476,30544,30612,29928,30996,5092,14565,-2853,-2213,0,-293,1709863216.7318623,0,17436,17455,17423,17447,17471,17511,17515,17489,8675,167,43,33,-4819,-14048,7258,0,0,0,1709863216.7433822,1,17657,17676,17693,17722,17709,17730,17775,17772,10662,164,134,49,2470,-15766,4423,0,0,0,1709863216.7433822,2,12457,12439,12404,12397,12412,12427,12426,12426,33852,81,58,18,-1783,16397,-1866,0,0,0,1709863216.7433822,3,,,,,,,,,,,,,,,,,0,0,1709863216.7433822,4,0,0,0,0,0,0,0,0,0,0,0,0,Attribute not found,Attribute not found,Attribute not found,0,0,0,1709863216.7433822,,,,,,,,,,,,,,,,,,,,,,,,,,,,,,,,,,,,,,,,,,,,,,,,,,,,,,,,,,,,
1,31620,30576,30728,26468,31036,6641,15711,-4495,-2202,0,-294,1709863216.8309445,0,18033,18102,18118,18074,18031,18010,18017,18009,13322,213,76,19,-5855,-14769,6532,0,0,0,1709863216.8420734,1,17594,17558,17550,17571,17604,17646,17698,17648,9797,265,52,31,1878,-15476,4824,0,0,0,1709863216.8420734,2,12514,12543,12575,12584,12563,12537,12486,12463,34729,221,36,32,-2842,15307,-1026,0,0,0,1709863216.8420734,3,,,,,,,,,,,,,,,,,0,0,1709863216.8420734,4,0,0,0,0,0,0,0,0,0,0,0,0,Attribute not found,Attribute not found,Attribute not found,0,0,0,1709863216.8420734,,,,,,,,,,,,,,,,,,,,,,,,,,,,,,,,,,,,,,,,,,,,,,,,,,,,,,,,,,,,
1,31568,30516,30764,26988,31008,6183,15542,-4801,-2210,0,-298,1709863216.9232829,0,18533,18552,18563,18548,18519,18502,18501,18516,17162,122,15,4,-4957,-14146,6839,0,0,0,1709863216.9359438,1,17942,17958,17969,17959,17941,17944,17961,17976,12578,23,57,23,1759,-15624,4752,0,0,0,1709863216.9359438,2,12704,12701,12687,12682,12696,12704,12725,12710,36072,65,17,18,-2802,16947,-616,0,0,0,1709863216.9359438,3,,,,,,,,,,,,,,,,,0,0,1709863216.9359438,4,0,0,0,0,0,0,0,0,0,0,0,0,Attribute not found,Attribute not found,Attribute not found,0,0,0,1709863216.9359438,,,,,,,,,,,,,,,,,,,,,,,,,,,,,,,,,,,,,,,,,,,,,,,,,,,,,,,,,,,,
1,31620,30596,30680,29672,31040,5235,14585,-2793,-2202,0,-278,1709863217.0184562,0,18800,18804,18790,18768,18746,18719,18682,18672,18909,240,111,64,-5626,-14160,6614,0,0,0,1709863217.0324306,1,18229,18214,18194,18183,18196,18216,18234,18259,14653,127,12,24,1259,-15432,4638,0,0,0,1709863217.0324306,2,12696,12695,12690,12678,12682,12682,12684,12687,35958,30,12,3,-1552,16229,-1449,0,0,0,1709863217.0324306,3,,,,,,,,,,,,,,,,,0,0,1709863217.0324306,4,0,0,0,0,0,0,0,0,0,0,0,0,Attribute not found,Attribute not found,Attribute not found,0,0,0,1709863217.0324306,,,,,,,,,,,,,,,,,,,,,,,,,,,,,,,,,,,,,,,,,,,,,,,,,,,,,,,,,,,,
1,31524,30604,30496,29924,31068,7979,14295,-4712,-2197,0,-271,1709863217.1180065,0,18214,18249,18254,18315,18467,18547,18547,18486,16007,712,120,167,-5732,-14719,6326,0,0,0,1709863217.1299481,1,18247,18268,18317,18312,18290,18286,18286,18247,15181,120,66,15,1514,-15643,4353,0,0,0,1709863217.1299481,2,12595,12595,12549,12520,12501,12517,12537,12553,34831,177,40,25,-2580,15825,-1088,0,0,0,1709863217.1299481,3,,,,,,,,,,,,,,,,,0,0,1709863217.1299481,4,0,0,0,0,0,0,0,0,0,0,0,0,Attribute not found,Attribute not found,Attribute not found,0,0,0,1709863217.1299481,,,,,,,,,,,,,,,,,,,,,,,,,,,,,,,,,,,,,,,,,,,,,,,,,,,,,,,,,,,,
1,31504,30604,28960,29976,31032,7339,15425,-4858,-2174,0,-255,1709863217.2047117,0,17895,17962,17938,17912,17879,17812,17787,17835,11948,318,55,36,-5248,-14203,5979,0,0,0,1709863217.2189145,1,18169,18189,18171,18156,18177,18190,18202,18194,14376,61,39,34,1586,-15793,4590,0,0,0,1709863217.2189145,2,12469,12446,12433,12431,12448,12437,12440,12416,33984,19,56,34,-2123,16007,-1129,0,0,0,1709863217.2189145,3,,,,,,,,,,,,,,,,,0,0,1709863217.2189145,4,0,0,0,0,0,0,0,0,0,0,0,0,Attribute not found,Attribute not found,Attribute not found,0,0,0,1709863217.2189145,,,,,,,,,,,,,,,,,,,,,,,,,,,,,,,,,,,,,,,,,,,,,,,,,,,,,,,,,,,,
1,31568,30632,28428,29972,31100,7182,15475,-5230,-2172,0,-254,1709863217.303318,0,17313,17311,17331,17367,17387,17404,17421,17411,7873,216,81,39,-5090,-14442,6538,0,0,0,1709863217.3163774,1,17955,17993,18021,18022,18028,18007,17996,17973,12923,127,34,28,2802,-15711,4889,0,0,0,1709863217.3163774,2,12362,12352,12342,12342,12347,12350,12360,12393,33312,74,33,27,-605,15302,-1651,0,0,0,1709863217.3163774,3,,,,,,,,,,,,,,,,,0,0,1709863217.3163774,4,0,0,0,0,0,0,0,0,0,0,0,0,Attribute not found,Attribute not found,Attribute not found,0,0,0,1709863217.3163774,,,,,,,,,,,,,,,,,,,,,,,,,,,,,,,,,,,,,,,,,,,,,,,,,,,,,,,,,,,,
1,31540,30620,30668,30136,31008,7303,26648,-10800,-2136,0,-215,1709863217.4013731,0,17387,17348,17306,17241,17178,17190,17253,17285,7116,376,13,71,-4656,-14399,7412,0,0,0,1709863217.412888,1,17898,17933,17965,17924,17806,17770,17791,17797,11812,396,55,73,1967,-16272,4147,0,0,0,1709863217.412888,2,12230,12262,12278,12300,12389,12465,12492,12557,33437,552,199,226,-1367,16926,-2395,0,0,0,1709863217.412888,3,,,,,,,,,,,,,,,,,0,0,1709863217.412888,4,0,0,0,0,0,0,0,0,0,0,0,0,Attribute not found,Attribute not found,Attribute not found,0,0,0,1709863217.412888,,,,,,,,,,,,,,,,,,,,,,,,,,,,,,,,,,,,,,,,,,,,,,,,,,,,,,,,,,,,
1,31592,30256,30544,30124,31092,9111,12989,-3841,-2119,0,-201,1709863217.4963999,0,17352,17530,17658,17676,17673,17773,17960,18001,10551,751,701,391,-4326,-13909,5292,0,0,0,1709863217.5083165,1,17493,17418,17428,17381,17370,17410,17502,17636,8566,396,200,118,-135,-15188,3751,0,0,0,1709863217.5083165,2,13136,13167,13027,12939,12894,12893,12673,12292,37485,1005,892,586,-2707,14035,491,0,0,0,1709863217.5083165,3,,,,,,,,,,,,,,,,,0,0,1709863217.5083165,4,0,0,0,0,0,0,0,0,0,0,0,0,Attribute not found,Attribute not found,Attribute not found,0,0,0,1709863217.5083165,,,,,,,,,,,,,,,,,,,,,,,,,,,,,,,,,,,,,,,,,,,,,,,,,,,,,,,,,,,,
1,31668,28332,30636,30160,31020,7264,15319,-5113,-2105,0,-188,1709863217.5939088,0,18274,18282,18303,18283,18305,18318,18363,18369,15425,146,101,71,-4994,-14601,6572,0,0,0,1709863217.6068668,1,17854,17860,17862,17851,17858,17868,17868,17871,11820,26,18,18,1887,-16024,4518,0,0,0,1709863217.6068668,2,12729,12737,12724,12739,12741,12745,12754,12759,36391,49,17,22,-2961,16462,-911,0,0,0,1709863217.6068668,3,,,,,,,,,,,,,,,,,0,0,1709863217.6068668,4,0,0,0,0,0,0,0,0,0,0,0,0,Attribute not found,Attribute not found,Attribute not found,0,0,0,1709863217.6068668,,,,,,,,,,,,,,,,,,,,,,,,,,,,,,,,,,,,,,,,,,,,,,,,,,,,,,,,,,,,
1,31556,30356,30588,30132,31016,6939,24223,-5065,-2118,0,-186,1709863217.6930723,0,18747,18766,18799,18821,18818,18800,18771,18749,19199,155,6,4,-4157,-14466,7258,0,0,0,1709863217.7050025,1,18177,18180,18155,18138,18156,18184,18205,18229,14352,143,27,44,2517,-16158,4960,0,0,0,1709863217.7050025,2,12848,12867,12843,12820,12792,12746,12718,12743,36841,278,93,29,-2929,16735,-1832,0,0,0,1709863217.7050025,3,,,,,,,,,,,,,,,,,0,0,1709863217.7050025,4,0,0,0,0,0,0,0,0,0,0,0,0,Attribute not found,Attribute not found,Attribute not found,0,0,0,1709863217.7050025,,,,,,,,,,,,,,,,,,,,,,,,,,,,,,,,,,,,,,,,,,,,,,,,,,,,,,,,,,,,
1,31524,30592,30560,30176,31100,6331,13283,-534,-2123,0,-186,1709863217.7905815,0,19025,18890,18676,18553,18438,18317,18234,18124,17185,1340,765,553,-3938,-13797,6648,0,0,0,1709863217.8026977,1,18195,18115,18173,18285,18354,18212,18134,18127,14523,349,256,21,2152,-16258,3416,0,0,0,1709863217.8026977,2,12776,12755,12721,12692,12608,12504,12480,12489,35489,597,198,156,-208,16485,-634,0,0,0,1709863217.8026977,3,,,,,,,,,,,,,,,,,0,0,1709863217.8026977,4,0,0,0,0,0,0,0,0,0,0,0,0,Attribute not found,Attribute not found,Attribute not found,0,0,0,1709863217.8026977,,,,,,,,,,,,,,,,,,,,,,,,,,,,,,,,,,,,,,,,,,,,,,,,,,,,,,,,,,,,
1,29004,30084,30640,30196,31088,4714,16040,-2483,-2106,0,-187,1709863217.8883529,0,18317,18153,18079,18080,18160,18233,18274,18221,14445,404,150,120,-4546,-14369,6636,0,0,0,1709863217.901031,1,18350,18444,18382,18141,18210,18357,18324,18249,15385,281,436,72,2042,-16220,4294,0,0,0,1709863217.901031,2,12809,12820,12786,12857,12894,12899,12838,12740,37106,225,145,95,-2286,16965,-340,0,0,0,1709863217.901031,3,,,,,,,,,,,,,,,,,0,0,1709863217.901031,4,0,0,0,0,0,0,0,0,0,0,0,0,Attribute not found,Attribute not found,Attribute not found,0,0,0,1709863217.901031,,,,,,,,,,,,,,,,,,,,,,,,,,,,,,,,,,,,,,,,,,,,,,,,,,,,,,,,,,,,
1,28692,29864,30612,30168,31092,5991,14441,-3487,-2108,0,-203,1709863217.983367,0,17443,17422,17464,17494,17497,17447,17374,17354,8423,241,104,63,-3403,-14402,7105,0,0,0,1709863217.9968832,1,18184,18168,18166,18163,18203,18146,18002,17979,13939,337,278,97,2881,-16223,4344,0,0,0,1709863217.9968832,2,12508,12495,12474,12457,12432,12418,12425,12422,34095,166,53,55,-826,16869,-2203,0,0,0,1709863217.9968832,3,,,,,,,,,,,,,,,,,0,0,1709863217.9968832,4,0,0,0,0,0,0,0,0,0,0,0,0,Attribute not found,Attribute not found,Attribute not found,0,0,0,1709863217.9968832,,,,,,,,,,,,,,,,,,,,,,,,,,,,,,,,,,,,,,,,,,,,,,,,,,,,,,,,,,,,
1,31512,30512,30556,30148,31036,3655,15878,-2055,-2110,0,-206,1709863218.0800226,0,17262,17253,17283,17319,17376,17401,17339,17206,7367,309,129,77,-4414,-14220,7215,0,0,0,1709863218.0920687,1,17860,17809,17771,17748,17785,17863,17920,17966,11650,391,62,59,3257,-15918,4369,0,0,0,1709863218.0920687,2,12648,12651,12658,12689,12684,12685,12683,12661,35823,85,16,22,-25,16168,-2470,0,0,0,1709863218.0920687,3,,,,,,,,,,,,,,,,,0,0,1709863218.0920687,4,0,0,0,0,0,0,0,0,0,0,0,0,Attribute not found,Attribute not found,Attribute not found,0,0,0,1709863218.0920687,,,,,,,,,,,,,,,,,,,,,,,,,,,,,,,,,,,,,,,,,,,,,,,,,,,,,,,,,,,,
1,31536,30268,30616,30192,31064,9578,15532,-7464,-2093,0,-199,1709863218.1732106,0,17255,17141,17185,17236,17310,17459,17601,17838,7953,1076,522,347,-6324,-14039,5037,0,0,0,1709863218.1870422,1,17493,17373,17266,17314,17394,17465,17548,17571,8352,571,86,39,-1029,-14650,4635,0,0,0,1709863218.1870422,2,11615,11905,12022,12207,12140,12232,12476,12601,31662,1075,1001,575,-5809,13516,3301,0,0,0,1709863218.1870422,3,,,,,,,,,,,,,,,,,0,0,1709863218.1870422,4,0,0,0,0,0,0,0,0,0,0,0,0,Attribute not found,Attribute not found,Attribute not found,0,0,0,1709863218.1870422,,,,,,,,,,,,,,,,,,,,,,,,,,,,,,,,,,,,,,,,,,,,,,,,,,,,,,,,,,,,
1,31736,26652,30692,30168,31092,7662,15248,-5387,-2094,0,-199,1709863218.266953,0,18082,18160,18255,18326,18290,18193,18176,18192,14602,359,175,90,-5477,-14597,6579,0,0,0,1709863218.2803674,1,17629,17606,17623,17609,17590,17579,17554,17550,9668,130,49,62,4027,-16530,4292,0,0,0,1709863218.2803674,2,12665,12669,12645,12662,12670,12683,12688,12683,35828,67,7,20,-2720,16826,-1017,0,0,0,1709863218.2803674,3,,,,,,,,,,,,,,,,,0,0,1709863218.2803674,4,0,0,0,0,0,0,0,0,0,0,0,0,Attribute not found,Attribute not found,Attribute not found,0,0,0,1709863218.2803674,,,,,,,,,,,,,,,,,,,,,,,,,,,,,,,,,,,,,,,,,,,,,,,,,,,,,,,,,,,,
1,31584,29460,30680,30164,31072,6201,15115,-3537,-2111,0,-205,1709863218.3624709,0,18690,18677,18671,18663,18681,18752,18804,18865,18731,343,143,102,-3833,-13911,6908,0,0,0,1709863218.3751242,1,17759,17755,17759,17745,17739,17728,17711,17716,10840,89,35,23,2761,-15722,3921,0,0,0,1709863218.3751242,2,12862,12873,12862,12842,12830,12828,12833,12848,37242,88,11,4,-2225,16058,-2123,0,0,0,1709863218.3751242,3,,,,,,,,,,,,,,,,,0,0,1709863218.3751242,4,0,0,0,0,0,0,0,0,0,0,0,0,Attribute not found,Attribute not found,Attribute not found,0,0,0,1709863218.3751242,,,,,,,,,,,,,,,,,,,,,,,,,,,,,,,,,,,,,,,,,,,,,,,,,,,,,,,,,,,,
1,31500,30636,30436,30104,31092,5194,15626,-3024,-2107,0,-204,1709863218.4600785,0,19064,18964,18877,18788,18709,18613,18557,18489,18989,872,452,347,-4927,-13406,6754,0,0,0,1709863218.4725304,1,17895,17880,18009,18088,18107,18119,18138,18080,13244,484,222,50,1709,-15233,4519,0,0,0,1709863218.4725304,2,12613,12622,12640,12699,12705,12672,12654,12616,35684,186,31,37,-1354,15019,-1627,0,0,0,1709863218.4725304,3,,,,,,,,,,,,,,,,,0,0,1709863218.4725304,4,0,0,0,0,0,0,0,0,0,0,0,0,Attribute not found,Attribute not found,Attribute not found,0,0,0,1709863218.4725304,5,0,0,0,0,0,0,0,0,0,0,0,0,Attribute not found,Attribute not found,Attribute not found,0,0,0,1709863218.4725304,,,,,,,,,,,,,,,,,,,,,,,,,,,,,,,,,,,,,,,,
1,31468,30692,27548,30188,30992,7060,15092,-4550,-2106,0,-207,1709863218.5574262,0,18196,18217,18255,18275,18270,18252,18240,18201,14834,156,29,12,-5592,-14502,6737,0,0,0,1709863218.569859,1,18035,18011,17992,17952,17954,17977,18012,18050,12911,186,20,28,697,-15912,4582,0,0,0,1709863218.569859,2,12526,12518,12499,12498,12489,12481,12499,12510,34484,73,19,17,-1017,16095,-1327,0,0,0,1709863218.569859,3,,,,,,,,,,,,,,,,,0,0,1709863218.569859,4,0,0,0,0,0,0,0,0,0,0,0,0,Attribute not found,Attribute not found,Attribute not found,0,0,0,1709863218.569859,5,0,0,0,0,0,0,0,0,0,0,0,0,Attribute not found,Attribute not found,Attribute not found,0,0,0,1709863218.569859,,,,,,,,,,,,,,,,,,,,,,,,,,,,,,,,,,,,,,,,
