uLabel ID,h1,h2,h3,h4,h5,ax,ay,az,dev_yaw,dev_pitch,dev_roll,Timestamp,uMyo1 ID,d1,d2,d3,d4,d5,d6,d7,ds0,ds1,ds2,ds3,q1,q2,q3,q4,ax,ay,az,dev_yaw,dev_pitch,dev_roll,Timestamp,uMyo2 ID,d1,d2,d3,d4,d5,d6,d7,ds0,ds1,ds2,ds3,q1,q2,q3,q4,ax,ay,az,dev_yaw,dev_pitch,dev_roll,Timestamp,uMyo3 ID,d1,d2,d3,d4,d5,d6,d7,ds0,ds1,ds2,ds3,q1,q2,q3,q4,ax,ay,az,dev_yaw,dev_pitch,dev_roll,Timestamp,uMyo4 ID,d1,d2,d3,d4,d5,d6,d7,ds0,ds1,ds2,ds3,q1,q2,q3,q4,ax,ay,az,dev_yaw,dev_pitch,dev_roll,Timestamp
1,28900,27976,30740,29932,31048,-148,-266,16731,-87,0,-3,1709861933.5600507,0,17810,17790,17838,17858,17849,17934,18093,18160,12260,574,400,162,21230,22248,-4029,-7874,1555,-16022,4393,0,0,0,1709861933.5680873,1,18533,18513,18406,18307,18229,18254,18231,18160,15561,600,325,251,16251,13299,-4189,23779,-4634,-14481,6752,0,0,0,1709861933.5680873
1,28948,26156,30744,29948,31060,-148,-266,16731,-87,0,-3,1709861933.6255295,0,17521,17496,17500,17515,17555,17605,17594,17571,9285,222,23,22,21208,22231,-4128,-7930,75,-16049,5196,0,0,0,1709861933.6417382,1,18285,18247,18283,18372,18422,18495,18493,18425,15950,504,88,2,16235,13321,-4268,23763,-5478,-15328,5956,0,0,0,1709861933.6417382,2,11669,12075,12416,12513,12463,12094,11528,12070,31292,1633,454,751,21182,-19925,-8872,9978,-2980,16474,56,0,0,0,1709861933.6417382
1,30236,26436,30728,29984,31088,-148,-266,16731,-87,0,-3,1709861933.726279,0,17495,17489,17469,17421,17369,17371,17440,17465,8447,253,51,25,21194,22209,-4148,-8020,1232,-16071,4701,0,0,0,1709861933.7410002,1,18415,18393,18366,18354,18331,18302,18295,18304,15688,204,92,62,16239,13344,-4204,23759,-4571,-15141,5996,0,0,0,1709861933.7410002,2,12101,12106,12105,12111,12095,12102,12094,12094,31271,26,4,15,21220,-19914,-8806,9978,-3048,15957,226,0,0,0,1709861933.7410002
1,31260,29456,30544,29900,31016,-148,-266,16731,-87,0,-3,1709861933.8257709,0,17592,17589,17586,17594,17575,17529,17527,17522,9442,152,54,42,21242,22202,-3955,-8010,1506,-15628,4289,0,0,0,1709861933.8417888,1,17926,17911,17887,17851,17828,17894,17897,17855,11977,112,103,85,16183,13463,-3954,23773,-5412,-13903,7086,0,0,0,1709861933.8417888,2,11991,11998,12013,12003,11998,12031,12116,12218,30831,303,237,153,21158,-19817,-9047,10087,-1427,16444,-66,0,0,0,1709861933.8417888
1,31364,29836,30348,30100,31012,-148,-266,16731,-87,0,-3,1709861933.9307015,0,18191,18257,18267,18199,18156,18067,18006,17989,14060,544,154,53,21262,22186,-3849,-8052,1873,-15738,4258,0,0,0,1709861933.9459338,1,17614,17591,17563,17526,17486,17413,17360,17389,8870,453,198,100,16136,13644,-3939,23705,-4094,-14020,7123,0,0,0,1709861933.9459338,2,12372,12403,12361,12298,12271,12231,12112,12042,32554,553,339,169,21146,-19813,-9037,10128,-2148,16241,-1412,0,0,0,1709861933.9459338
1,31456,30132,27052,30192,30968,-148,-266,16731,-87,0,-3,1709861934.0384543,0,18487,18515,18577,18568,18513,18542,18519,18488,17137,139,96,53,21231,22242,-3763,-8019,1105,-15814,4538,0,0,0,1709861934.0541272,1,17758,17749,17693,17597,17519,17454,17443,17496,9637,649,178,106,16176,13715,-3943,23636,-5288,-14557,6695,0,0,0,1709861934.0541272,2,12234,12247,12238,12234,12232,12190,12115,12068,32022,290,176,86,21116,-19915,-8869,10138,-1122,16101,-1638,0,0,0,1709861934.0541272
1,31516,30320,29404,30172,31040,-148,-266,16731,-87,0,-3,1709861934.1525712,0,18504,18489,18491,18488,18493,18478,18481,18475,16827,28,25,14,21220,22212,-3740,-8142,2958,-15899,4219,0,0,0,1709861934.16742,1,17796,17785,17806,17799,17821,17831,17819,17833,11418,77,17,46,16154,13749,-3774,23659,-3446,-14027,7399,0,0,0,1709861934.16742,2,12124,12131,12138,12120,12108,12095,12082,12061,31323,123,46,34,21180,-19903,-8721,10157,-1891,17433,-1263,0,0,0,1709861934.16742
1,31488,30336,30216,30012,30944,-148,-266,16731,-87,0,-3,1709861934.2603726,0,17817,17828,17823,17804,17797,17800,17812,17845,11454,68,29,35,21246,22218,-3728,-8064,1024,-16296,3947,0,0,0,1709861934.276015,1,18248,18287,18345,18404,18419,18413,18419,18371,15834,316,122,59,16222,13547,-3669,23745,-6262,-14030,7146,0,0,0,1709861934.276015,2,12022,12008,11986,11997,12000,12001,11991,11966,30434,22,64,50,21034,-19920,-8988,10194,-804,15847,-784,0,0,0,1709861934.276015
1,31488,30476,30700,27904,31056,-148,-266,16731,-87,0,-3,1709861934.362496,0,17573,17523,17495,17429,17412,17439,17477,17485,8761,262,49,62,21269,22200,-3911,-7967,864,-15460,4485,0,0,0,1709861934.378468,1,18622,18556,18514,18508,18577,18588,18537,18537,17367,78,178,51,16237,13498,-3866,23731,-4217,-14478,5523,0,0,0,1709861934.378468,2,12021,12069,12144,12174,12195,12180,12182,12201,31630,269,167,129,21051,-19936,-9036,10085,-2467,15212,-128,0,0,0,1709861934.378468
1,31536,30400,30840,28860,30980,-148,-266,16731,-87,0,-3,1709861934.4674883,0,17165,17185,17215,17262,17329,17320,17339,17368,7111,347,138,150,21253,22224,-4007,-7894,1028,-16119,4537,0,0,0,1709861934.4838233,1,17995,18037,18029,17987,17997,17988,17921,17877,12759,225,166,41,16280,13297,-3891,23811,-6374,-15317,5468,0,0,0,1709861934.4838233,2,12129,12137,12126,12120,12112,12098,12060,12058,31304,137,79,33,21065,-19979,-9036,9970,-2033,15844,-148,0,0,0,1709861934.4838233
1,31472,30532,30764,26976,31024,-148,-266,16731,-87,0,-3,1709861934.5698729,0,17686,17692,17706,17703,17708,17691,17691,17690,10495,39,10,14,21254,22250,-3950,-7843,1509,-16656,4831,0,0,0,1709861934.589646,1,17593,17626,17629,17636,17645,17656,17632,17596,9941,101,55,10,16303,13085,-3566,23962,-5039,-14771,7223,0,0,0,1709861934.589646,2,12101,12150,12182,12177,12165,12164,12149,12156,31707,96,67,48,21022,-19886,-9189,10106,-2187,17044,-1178,0,0,0,1709861934.589646
1,31420,30556,30588,29040,31052,-148,-266,16731,-87,0,-3,1709861934.6849918,0,18512,18521,18544,18567,18569,18527,18486,18479,17133,169,51,9,21222,22349,-3863,-7694,158,-15617,3852,0,0,0,1709861934.7002666,1,17898,17872,17832,17852,17950,18032,17989,17911,12264,335,143,19,16233,13007,-3453,24069,-3730,-14445,4795,0,0,0,1709861934.7002666,2,12338,12352,12365,12390,12398,12387,12386,12434,33513,93,86,74,20976,-19842,-9416,10078,-2487,15279,124,0,0,0,1709861934.7002666
1,31408,30564,30644,28936,30480,-148,-266,16731,-87,0,-3,1709861934.7923894,0,18815,18729,18662,18698,18757,18761,18749,18794,18893,205,161,13,20922,22585,-4158,-7669,1322,-14657,3945,0,0,0,1709861934.8059108,1,18354,18337,18325,18329,18415,18478,18477,18470,16113,356,36,77,15921,12959,-3512,24294,-4130,-13374,5014,0,0,0,1709861934.8059108,2,12336,12290,12250,12240,12216,12218,12279,12310,32603,222,47,36,21058,-19862,-9527,9760,-2239,15077,32,0,0,0,1709861934.8059108
1,31496,30572,30608,28912,29856,-148,-266,16731,-87,0,-3,1709861934.896016,0,17955,17971,17957,17902,17826,17757,17748,17740,11784,502,114,108,20739,22668,-4381,-7797,269,-16220,5392,0,0,0,1709861934.9114814,1,18423,18411,18412,18410,18410,18405,18388,18452,16239,46,56,53,15743,13052,-3613,24345,-4877,-14333,6455,0,0,0,1709861934.9114814,2,11900,11960,12043,12097,12110,12118,12125,12127,30944,369,215,129,21175,-19857,-9503,9536,-1696,16711,-473,0,0,0,1709861934.9114814
1,31500,30520,30572,29976,30688,-148,-266,16731,-87,0,-3,1709861934.9995255,0,17417,17435,17351,17268,17227,17186,17191,17221,7224,497,166,68,20591,22790,-4422,-7813,1687,-16889,5306,0,0,0,1709861935.016434,1,18065,18016,18015,18003,18044,18102,18104,18089,13366,211,27,38,15634,13112,-3556,24392,-5722,-15841,6290,0,0,0,1709861935.016434,2,12144,12138,12081,12004,11970,11995,12045,12108,30949,354,24,8,21181,-19623,-9833,9674,-2933,17289,-981,0,0,0,1709861935.016434
1,31496,30580,30532,29968,30960,-148,-266,16731,-87,0,-3,1709861935.1175077,0,17261,17162,17193,17255,17392,17391,17370,17384,7336,475,124,97,20358,23055,-4265,-7731,336,-15268,5490,0,0,0,1709861935.1348164,1,17874,17729,17638,17541,17543,17685,17842,17926,10706,774,82,46,15499,13041,-3269,24556,-6276,-14361,6019,0,0,0,1709861935.1348164,2,11837,12185,12344,12180,11991,12097,11892,11841,30831,823,484,151,21253,-19343,-10113,9789,-3528,15242,-484,0,0,0,1709861935.1348164
1,31480,30524,30504,30088,30976,-148,-266,16731,-87,0,-3,1709861935.2293918,0,17960,18004,17986,17949,17951,17937,17904,17903,12522,163,91,6,20087,23332,-3973,-7764,1609,-15737,5203,0,0,0,1709861935.2436135,1,17534,17530,17457,17407,17388,17467,17525,17564,8800,330,65,9,15337,13069,-2776,24703,-5740,-13346,7521,0,0,0,1709861935.2436135,2,12230,12278,12333,12334,12339,12328,12279,12284,32869,187,44,66,21358,-18929,-10408,10057,-1082,16280,-1785,0,0,0,1709861935.2436135
1,31492,30524,30640,28360,31104,-148,-266,16731,-87,0,-3,1709861935.3363435,0,18691,18769,18764,18745,18690,18621,18661,18704,18573,248,73,80,20033,23400,-4015,-7677,2370,-15165,6062,0,0,0,1709861935.3515482,1,18007,17943,17871,17804,17810,17866,17929,17908,12066,334,98,79,15326,12854,-2705,24830,-5873,-13395,6464,0,0,0,1709861935.3515482,2,12377,12368,12386,12360,12332,12340,12320,12355,33301,108,7,51,21271,-19080,-10423,9940,-4365,15726,-292,0,0,0,1709861935.3515482
1,31428,30576,30788,28688,30956,-148,-266,16731,-87,0,-3,1709861935.4457486,0,18642,18620,18567,18530,18551,18557,18575,18589,17559,177,77,11,20048,23414,-3990,-7611,1650,-15809,5917,0,0,0,1709861935.4624612,1,18538,18524,18535,18526,18531,18577,18606,18594,17359,157,74,14,15334,12662,-2602,24934,-6042,-14220,6282,0,0,0,1709861935.4624612,2,12056,12134,12151,12204,12189,12136,12038,11939,31311,439,138,91,21278,-19115,-10400,9882,-3487,15960,-591,0,0,0,1709861935.4624612
1,31480,30532,30604,28952,31016,-148,-266,16731,-87,0,-3,1709861935.5551944,0,18033,18047,18022,18005,18009,18011,18018,18027,13100,66,26,18,20118,23425,-3782,-7496,-220,-15284,6517,0,0,0,1709861935.5716338,1,18603,18578,18617,18641,18643,18623,18596,18594,17823,107,47,31,15424,12607,-2401,24927,-6979,-14344,6067,0,0,0,1709861935.5716338,2,12022,12036,12093,12107,12117,12119,12141,12197,31296,192,176,124,21231,-18979,-10562,10071,-3784,15922,-360,0,0,0,1709861935.5716338
1,31484,30632,29724,29808,30956,-148,-266,16731,-87,0,-3,1709861935.6760232,0,17581,17553,17538,17580,17636,17621,17605,17484,9526,177,132,106,20155,23373,-3708,-7593,1298,-14894,6599,0,0,0,1709861935.690908,1,17858,17853,17846,17818,17804,17806,17890,17907,11710,167,99,44,15398,12847,-2397,24820,-4272,-13591,6853,0,0,0,1709861935.690908,2,12155,12113,12098,12091,12083,12049,12000,12056,31108,191,140,58,21310,-19227,-10137,9868,-5010,15456,-725,0,0,0,1709861935.690908
1,31508,30736,29624,30008,31068,-148,-266,16731,-87,0,-3,1709861935.7839406,0,17238,17187,17219,17247,17331,17383,17368,17272,7173,372,54,28,20140,23338,-3770,-7712,734,-15620,5395,0,0,0,1709861935.7985413,1,17286,17348,17389,17368,17354,17340,17314,17270,7597,199,80,4,15329,12834,-2235,24885,-5174,-14278,6379,0,0,0,1709861935.7985413,2,11985,11976,11983,11991,12000,12007,12008,12019,30433,68,27,21,21358,-19355,-9863,9791,-2953,16222,-438,0,0,0,1709861935.7985413
1,31536,30780,29328,29988,30992,-148,-266,16731,-87,0,-3,1709861935.892318,0,17819,17757,17693,17685,17712,17740,17756,17776,10866,216,89,32,20137,23348,-3776,-7685,1110,-15894,5796,0,0,0,1709861935.9076672,1,17479,17497,17554,17633,17656,17620,17578,17571,9516,315,87,49,15357,12781,-2175,24900,-5919,-14907,7230,0,0,0,1709861935.9076672,2,12007,12021,12060,12090,12089,12049,11990,11958,30728,242,50,31,21317,-19313,-9989,9838,-2454,16600,-222,0,0,0,1709861935.9076672
1,31536,30332,30592,30020,31020,-148,-266,16731,-87,0,-3,1709861936.000745,0,18524,18464,18477,18509,18492,18474,18534,18580,16982,136,151,11,20130,23346,-3883,-7656,180,-15345,6326,0,0,0,1709861936.0163443,1,18324,18297,18310,18282,18219,18266,18401,18487,15514,346,265,69,15400,12441,-2139,25049,-6550,-14307,6818,0,0,0,1709861936.0163443,2,11801,11781,11818,12106,12404,12422,11507,11298,29601,1683,1188,463,21219,-19163,-10422,9893,-2559,16206,17,0,0,0,1709861936.0163443
1,31648,27504,30652,30024,31004,-148,-266,16731,-87,0,-3,1709861936.1125238,0,18657,18684,18704,18735,18847,18797,18683,18707,18742,292,123,121,20004,23253,-4403,-7981,1570,-15059,5397,0,0,0,1709861936.1317382,1,18566,18652,18579,18430,18369,18344,18243,18211,16322,754,372,138,15235,12324,-2151,25206,-5987,-13515,5569,0,0,0,1709861936.1317382,2,12791,12749,12731,12873,12908,11965,11871,11899,34251,2118,1098,383,21453,-19177,-10202,9586,-2413,15665,-1098,0,0,0,1709861936.1317382
1,31756,26476,30732,30068,31080,-148,-266,16731,-87,0,-3,1709861936.2303636,0,18135,18074,18052,18068,18104,18114,18113,18102,13690,116,76,36,19893,23195,-4582,-8321,995,-14871,6069,0,0,0,1709861936.2451732,1,17837,17866,17850,17821,17808,17804,17789,17767,11470,147,82,31,15138,12157,-1926,25363,-6069,-13835,5606,0,0,0,1709861936.2451732,2,12250,12239,12227,12210,12193,12186,12193,12209,32170,118,23,20,21603,-19222,-9941,9432,-5165,15673,597,0,0,0,1709861936.2451732
1,31544,30480,30524,30100,31016,-148,-266,16731,-87,0,-3,1709861936.3396056,0,17617,17639,17660,17664,17647,17583,17502,17456,9696,371,144,82,20103,23126,-4211,-8203,717,-15687,6002,0,0,0,1709861936.3548088,1,17722,17783,17784,17791,17818,17831,17769,17690,11116,208,133,24,15228,12313,-1699,25250,-6783,-14158,6147,0,0,0,1709861936.3548088,2,12183,12110,11927,11831,11881,12004,12115,12178,30693,718,107,25,21264,-19135,-10424,9847,-759,16139,-3226,0,0,0,1709861936.3548088
1,30884,30648,30540,30116,30992,-148,-266,16731,-87,0,-3,1709861936.4536784,0,17413,17578,17654,17652,17554,17412,17505,17764,9460,195,467,355,20120,23013,-4377,-8388,2558,-15534,5292,0,0,0,1709861936.469566,1,17910,17794,17778,17747,17760,17748,17757,17808,11230,225,135,80,15293,12659,-1798,25032,-5395,-14289,8046,0,0,0,1709861936.469566,2,12028,12049,12053,12102,12134,12182,12199,12224,31435,345,130,104,21217,-19201,-10363,9885,-1099,16880,-2785,0,0,0,1709861936.469566
1,30964,29988,30632,30184,31032,-148,-266,16731,-87,0,-3,1709861936.563963,0,17607,17966,17989,17994,18056,17982,17882,17576,11980,851,431,227,19908,23177,-4507,-8375,208,-15409,5657,0,0,0,1709861936.5783942,1,18183,18228,18226,18255,18261,18358,18445,18409,15293,424,240,96,15132,12810,-1858,25048,-6321,-13116,7869,0,0,0,1709861936.5783942,2,12264,12321,12314,12307,12310,12294,12284,12305,32862,57,24,64,21221,-19181,-10455,9819,-2604,15423,-644,0,0,0,1709861936.5783942
1,28884,30324,30576,30108,31052,-148,-266,16731,-87,0,-3,1709861936.6796727,0,18397,18479,18518,18533,18519,18395,18273,18289,16331,531,135,15,19864,23192,-4489,-8446,913,-15754,6490,0,0,0,1709861936.6941886,1,18518,18557,18549,18526,18453,18392,18382,18400,16705,384,46,53,15149,12695,-1739,25105,-6639,-14179,7252,0,0,0,1709861936.6941886,2,11837,11826,11806,11823,11887,11967,12054,12171,29835,601,242,219,21360,-19138,-10268,9798,-1880,16691,-1619,0,0,0,1709861936.6941886
1,31532,30432,30624,30108,30956,-148,-266,16731,-87,0,-3,1709861936.798715,0,18980,18992,19005,19020,19041,19124,19254,19346,21690,577,345,211,20035,22975,-4250,-8753,2049,-15796,4806,0,0,0,1709861936.815108,1,18076,18039,18010,18045,18065,18056,17988,17885,13092,167,218,157,15276,12860,-1644,24951,-4855,-13923,6992,0,0,0,1709861936.815108,2,12502,12160,12108,12133,12293,12483,12439,12493,33074,847,248,237,21578,-19088,-9828,9869,-1110,16289,-1662,0,0,0,1709861936.815108
1,31672,28044,30668,30144,31040,-148,-266,16731,-87,0,-3,1709861936.9104621,0,18312,18311,18362,18428,18471,18464,18341,18145,15762,480,217,165,19959,22836,-4547,-9136,2551,-15938,4924,0,0,0,1709861936.9276118,1,17207,17179,17174,17147,17076,16969,16957,16851,5488,579,213,237,15249,13053,-1773,24857,-6815,-13591,7125,0,0,0,1709861936.9276118,2,11700,11496,11405,11623,11894,12009,11956,12074,28621,1255,301,199,21857,-19264,-9157,9552,117,16706,-1751,0,0,0,1709861936.9276118
1,31740,25796,30740,30172,31056,-148,-266,16731,-87,0,-3,1709861937.0245137,0,17555,17569,17589,17564,17513,17494,17462,17426,9100,277,74,89,19898,22800,-4707,-9276,2295,-15861,5826,0,0,0,1709861937.039695,1,17449,17481,17489,17487,17483,17477,17481,17489,8764,31,42,38,15213,12936,-1693,24946,-5560,-14730,6651,0,0,0,1709861937.039695,2,12112,12131,12134,12142,12103,12106,12099,12094,31385,86,18,30,21883,-19333,-9046,9458,-3816,16774,-454,0,0,0,1709861937.039695
1,31584,29768,30572,30116,31000,-148,-266,16731,-87,0,-3,1709861937.1497345,0,17573,17604,17635,17641,17639,17671,17701,17712,10104,175,146,75,20083,22615,-4669,-9348,3137,-15302,4433,0,0,0,1709861937.167721,1,18520,18528,18512,18511,18519,18508,18468,18523,17017,54,59,44,15329,13182,-1760,24740,-3324,-13806,6508,0,0,0,1709861937.167721,2,12328,12353,12348,12361,12395,12417,12427,12401,33494,174,52,50,21783,-19445,-8990,9514,-5727,15547,1027,0,0,0,1709861937.167721
1,31556,30464,29452,30140,31020,-148,-266,16731,-87,0,-3,1709861937.2695723,0,17985,17970,17963,17932,17944,17947,17959,17910,12538,54,75,48,20021,22773,-4396,-9228,1970,-15547,5569,0,0,0,1709861937.2843814,1,18885,18946,18863,18654,18506,18445,18439,18478,18144,1088,273,158,15190,13422,-1679,24703,-5007,-13471,7987,0,0,0,1709861937.2843814,2,12276,12216,12169,12117,12100,12122,12162,12168,31794,281,69,77,21732,-19490,-8982,9545,-1486,16970,-3281,0,0,0,1709861937.2843814
1,31592,30552,27400,30336,30980,-148,-266,16731,-87,0,-3,1709861937.3824255,0,18301,18304,18286,18275,18291,18317,18350,18356,15408,142,45,38,20010,22735,-4486,-9303,2473,-16458,5391,0,0,0,1709861937.3973353,1,17727,17775,17759,17725,17696,17644,17604,17594,10452,341,116,43,15150,13410,-1612,24738,-5809,-14867,6725,0,0,0,1709861937.3973353,2,11993,11989,11994,11982,11983,11985,11994,12012,30396,38,23,23,21718,-19608,-8823,9484,-1828,16270,-1797,0,0,0,1709861937.3973353
1,31508,30624,29772,30108,31020,-148,-266,16731,-87,0,-3,1709861937.4925191,0,18510,18521,18550,18554,18537,18553,18552,18536,17241,63,57,11,20034,22750,-4406,-9252,910,-15769,4798,0,0,0,1709861937.5075483,1,17375,17357,17324,17304,17317,17305,17311,17316,7537,111,70,19,15158,13170,-1377,24876,-5191,-14177,6442,0,0,0,1709861937.5075483,2,11991,12000,11999,11982,11991,11997,12004,12028,30455,49,24,42,21611,-19530,-9124,9603,-1640,15626,-1410,0,0,0,1709861937.5075483
1,31588,30584,30580,29876,31020,-148,-266,16731,-87,0,-3,1709861937.5961547,0,18534,18556,18463,18332,18334,18407,18444,18448,16446,389,187,13,20062,22740,-4584,-9129,1534,-14855,4946,0,0,0,1709861937.6124718,1,17648,17719,17790,17805,17792,17762,17727,17714,10885,257,85,57,15114,13013,-1545,24976,-3917,-13636,5955,0,0,0,1709861937.6124718,2,12144,12163,12146,12135,12141,12138,12088,12079,31498,116,100,24,21529,-19614,-9316,9431,-1998,14989,396,0,0,0,1709861937.6124718
1,31516,30552,30704,25992,31056,-148,-266,16731,-87,0,-3,1709861937.7124329,0,17949,18037,18119,18079,17952,17872,17865,17866,12667,522,90,33,19941,22818,-4742,-9118,1741,-15452,5453,0,0,0,1709861937.729038,1,18349,18312,18312,18319,18321,18330,18321,18347,15539,54,44,31,15063,12777,-1490,25131,-6308,-14168,6867,0,0,0,1709861937.729038,2,11953,11936,11952,12011,12081,12109,12130,12186,30821,442,159,146,21541,-19550,-9442,9412,-2587,17072,-2039,0,0,0,1709861937.729038
1,31568,30600,30756,25944,30944,-148,-266,16731,-87,0,-3,1709861937.8242896,0,17972,17957,17898,17817,17780,17739,17749,17773,11613,459,149,77,19994,22789,-4551,-9174,1964,-16253,5334,0,0,0,1709861937.8403313,1,18967,18977,18973,18982,18979,18952,18906,18857,20521,191,112,70,15133,12758,-1202,25114,-5599,-14260,7637,0,0,0,1709861937.8403313,2,12225,12229,12231,12244,12251,12228,12194,12198,32264,90,53,6,21555,-19415,-9459,9639,-2221,17472,-1252,0,0,0,1709861937.8403313
1,31532,30552,30584,29632,31040,-148,-266,16731,-87,0,-3,1709861937.9360187,0,17835,17763,17739,17750,17758,17767,17807,17839,11186,191,75,17,20092,22767,-4474,-9051,1897,-15725,4378,0,0,0,1709861937.9526541,1,18490,18513,18500,18484,18499,18499,18464,18389,16766,131,141,63,15202,12842,-1224,25029,-4298,-14167,6572,0,0,0,1709861937.9526541,2,12185,12202,12235,12234,12208,12194,12166,12165,32053,140,8,24,21397,-19471,-9596,9742,-1588,16494,-1048,0,0,0,1709861937.9526541
1,31540,30572,30640,29080,30844,-148,-266,16731,-87,0,-3,1709861938.0477035,0,17935,17948,17989,18024,18064,18054,18056,18032,13030,247,70,61,19967,22877,-4559,-9005,1630,-15067,5813,0,0,0,1709861938.0648544,1,17553,17569,17607,17665,17713,17687,17631,17549,9902,326,50,23,15132,12803,-1279,25088,-6047,-13373,6912,0,0,0,1709861938.0648544,2,12136,12133,12110,12090,12082,12120,12150,12156,31441,134,42,3,21439,-19419,-9667,9683,-1734,16174,-2168,0,0,0,1709861938.0648544
1,31592,30600,30644,28364,29024,-148,-266,16731,-87,0,-3,1709861938.167255,0,18549,18582,18620,18631,18643,18644,18627,18589,17813,168,55,21,19967,22841,-4461,-9148,1859,-16076,5212,0,0,0,1709861938.1838436,1,17403,17394,17380,17359,17344,17358,17392,17426,7984,136,41,17,15122,12624,-904,25201,-5924,-14703,6838,0,0,0,1709861938.1838436,2,12184,12195,12190,12181,12184,12172,12168,12162,31900,51,26,8,21542,-19429,-9408,9689,-2967,16781,-615,0,0,0,1709861938.1838436
1,31548,30548,30608,29352,30832,-148,-266,16731,-87,0,-3,1709861938.2871752,0,18583,18541,18456,18458,18525,18577,18624,18637,17329,357,36,45,20063,22777,-4335,-9156,1814,-16050,4316,0,0,0,1709861938.3015192,1,18176,18153,18126,18122,18147,18179,18221,18303,14355,278,96,95,15206,12618,-718,25159,-5099,-14401,5942,0,0,0,1709861938.3015192,2,12162,12158,12147,12155,12176,12171,12147,12187,31767,31,45,42,21477,-19445,-9422,9786,-2214,15808,-1447,0,0,0,1709861938.3015192
1,31560,30556,30616,29600,31064,-148,-266,16731,-87,0,-3,1709861938.4041917,0,17847,17856,17845,17851,17882,17879,17846,17833,11767,64,63,6,20005,22809,-4400,-9173,1563,-15020,5134,0,0,0,1709861938.4218946,1,18573,18610,18610,18635,18649,18650,18638,18610,17903,127,30,34,15090,12668,-664,25206,-5650,-13859,6297,0,0,0,1709861938.4218946,2,12075,12074,12055,12076,12113,12145,12130,12092,31224,156,51,13,21474,-19401,-9574,9734,-3190,15551,-642,0,0,0,1709861938.4218946
1,31488,30548,30772,26944,30844,-148,-266,16731,-87,0,-3,1709861938.5257769,0,17418,17441,17503,17575,17631,17596,17524,17494,9110,386,38,55,20015,22808,-4358,-9175,2991,-16368,4282,0,0,0,1709861938.541578,1,18126,18082,18026,18001,17979,17951,17985,18008,13086,276,97,67,15238,12906,-862,24989,-3662,-14277,7234,0,0,0,1709861938.541578,2,12081,12118,12142,12165,12156,12176,12223,12254,31779,192,178,99,21553,-19354,-9401,9822,-1391,17487,-2387,0,0,0,1709861938.541578
1,31548,30548,30708,27928,29580,-148,-266,16731,-87,0,-3,1709861938.646025,0,17292,17364,17429,17484,17499,17496,17434,17432,8358,342,91,92,20013,22803,-4279,-9227,1795,-16022,4918,0,0,0,1709861938.666756,1,17455,17418,17390,17407,17479,17544,17537,17525,8683,320,30,31,15256,12627,-507,25129,-4303,-14529,7079,0,0,0,1709861938.666756,2,12110,12086,12030,12042,12126,12186,12180,12207,31431,338,34,72,21509,-19318,-9452,9939,-3073,16357,-320,0,0,0,1709861938.666756
1,31536,30528,30604,29780,30996,-148,-266,16731,-87,0,-3,1709861938.7659566,0,18267,18304,18338,18363,18397,18411,18415,18424,15847,254,114,106,19998,22788,-4247,-9310,1069,-15410,4623,0,0,0,1709861938.7816987,1,17724,17749,17766,17744,17685,17653,17649,17640,10538,260,18,50,15167,12697,-340,25151,-5259,-14208,6313,0,0,0,1709861938.7816987,2,12244,12225,12212,12204,12202,12190,12196,12214,32151,81,38,10,21498,-19252,-9572,9976,-1991,15612,-688,0,0,0,1709861938.7816987
1,31524,30508,30572,29696,30952,-148,-266,16731,-87,0,-3,1709861938.8810456,0,18434,18522,18599,18648,18655,18647,18627,18549,17609,382,139,63,19877,22855,-4324,-9371,2002,-15632,4989,0,0,0,1709861938.8956761,1,18231,18210,18228,18216,18195,18192,18167,18211,14578,89,39,52,14989,12827,-273,25193,-5317,-13808,7188,0,0,0,1709861938.8956761,2,12097,12087,12106,12102,12086,12086,12077,12071,31176,52,0,32,21559,-19140,-9713,9924,-2241,16238,-1677,0,0,0,1709861938.8956761
1,31516,30520,30728,25728,31020,-148,-266,16731,-87,0,-3,1709861938.9902549,0,18333,18369,18418,18473,18546,18584,18527,18427,16605,458,84,30,19876,22841,-4325,-9406,1380,-16622,5178,0,0,0,1709861939.0058913,1,18246,18258,18360,18513,18553,18478,18345,18231,15912,664,94,55,15009,12699,-141,25247,-7215,-14473,7659,0,0,0,1709861939.0058913,2,12229,12272,12313,12279,12214,12125,12114,12173,32183,380,57,24,21562,-19268,-9527,9850,-972,17385,-2990,0,0,0,1709861939.0058913
1,31544,30584,30480,27384,30988,-148,-266,16731,-87,0,-3,1709861939.1061735,0,17943,17920,17944,17941,17946,17944,17937,17928,12431,29,9,27,19999,22642,-4236,-9663,2487,-15912,4076,0,0,0,1709861939.1218178,1,18245,18191,18155,18148,18171,18192,18200,18185,14415,122,78,51,15156,12941,-192,25035,-3621,-14186,7050,0,0,0,1709861939.1218178,2,12173,12154,12154,12153,12169,12171,12171,12157,31766,32,22,13,21651,-19493,-8928,9772,-1921,17026,-1439,0,0,0,1709861939.1218178
1,31568,30564,30280,28144,31028,-148,-266,16731,-87,0,-3,1709861939.22043,0,17337,17356,17331,17260,17267,17255,17250,17281,7265,208,73,29,20181,22457,-4832,-9434,2701,-16216,4470,0,0,0,1709861939.2371855,1,17791,17724,17732,17779,17818,17854,17797,17757,11180,195,90,81,15331,13199,-1119,24768,-4105,-15377,6365,0,0,0,1709861939.2371855,2,12052,12043,12021,12005,12004,12030,12041,12034,30694,83,34,20,21372,-19981,-8940,9382,-5129,16304,149,0,0,0,1709861939.2371855
1,31588,30672,28420,29284,30980,-148,-266,16731,-87,0,-3,1709861939.3308606,0,17770,17745,17665,17660,17722,17721,17699,17658,10568,65,195,61,20158,22622,-5241,-8853,154,-14572,4529,0,0,0,1709861939.3463335,1,17705,17677,17699,17710,17691,17724,17717,17658,10509,57,38,86,15239,13103,-1822,24834,-4745,-13451,4949,0,0,0,1709861939.3463335,2,12264,12245,12241,12230,12215,12222,12211,12172,32264,90,70,78,21107,-20436,-9089,8842,-992,15242,-21,0,0,0,1709861939.3463335
1,31564,30564,29120,29308,31008,-148,-266,16731,-87,0,-3,1709861939.441803,0,18356,18380,18382,18359,18324,18339,18393,18431,15892,116,118,49,20304,22580,-5300,-8587,-1488,-15213,6756,0,0,0,1709861939.4572208,1,18160,18167,18147,18137,18134,18114,18107,18102,13996,109,58,25,15449,12810,-1740,24862,-6141,-14633,5610,0,0,0,1709861939.4572208,2,12318,12310,12290,12262,12246,12263,12269,12280,32702,125,31,26,20817,-20572,-9293,9000,-4480,16813,2171,0,0,0,1709861939.4572208
1,31508,30536,30504,29700,31008,-148,-266,16731,-87,0,-3,1709861939.5517774,0,18877,18960,19007,19035,19068,19065,19026,18951,20917,326,96,57,20790,22168,-4734,-8826,849,-16593,2743,0,0,0,1709861939.5673256,1,18591,18634,18664,18648,18620,18601,18581,18507,17774,231,86,62,16066,12812,-1355,24492,-3126,-14309,6621,0,0,0,1709861939.5673256,2,12242,12204,12175,12171,12155,12151,12131,12141,31833,145,100,72,20594,-20494,-9152,9802,-1749,17237,-1517,0,0,0,1709861939.5673256
1,31528,30532,30528,29836,30988,-148,-266,16731,-87,0,-3,1709861939.6659803,0,18388,18373,18378,18414,18433,18391,18242,18242,15789,303,228,93,20814,22051,-4933,-8951,721,-16539,3332,0,0,0,1709861939.6835997,1,18165,18162,18176,18164,18157,18060,17974,17928,13714,449,215,109,16052,12947,-1640,24412,-4932,-14740,6066,0,0,0,1709861939.6835997,2,12060,12022,11985,11962,11964,11983,11984,12000,30424,150,69,41,20617,-20711,-8917,9508,343,16117,-736,0,0,0,1709861939.6835997
1,31588,30728,28600,30028,30992,-148,-266,16731,-87,0,-3,1709861939.7747498,0,17554,17544,17495,17456,17532,17571,17587,17560,9227,199,99,32,20563,22016,-5729,-9142,2402,-15941,4895,0,0,0,1709861939.7908764,1,17531,17547,17545,17508,17463,17411,17369,17365,8667,378,116,75,15557,13333,-2262,24475,-4379,-15012,5724,0,0,0,1709861939.7908764,2,11930,11930,11922,11946,11963,11941,11923,11909,29928,69,50,19,20915,-21069,-8392,8496,-1998,16605,-208,0,0,0,1709861939.7908764
1,31508,30520,30180,29840,30980,-148,-266,16731,-87,0,-3,1709861939.8938885,0,17249,17250,17260,17266,17250,17210,17212,17234,6859,99,48,7,20392,21979,-5926,-9483,276,-15809,4020,0,0,0,1709861939.91078,1,17596,17617,17651,17666,17681,17708,17718,17680,10245,198,94,31,15397,13445,-2157,24524,-4714,-14307,6066,0,0,0,1709861939.91078,2,12042,12027,12010,12021,11999,11980,11976,11982,30501,106,55,45,20896,-21038,-8519,8493,-2240,15971,673,0,0,0,1709861939.91078
1,31532,30372,30504,30040,31024,-148,-266,16731,-87,0,-3,1709861940.0060592,0,17578,17647,17739,17816,17874,17856,17742,17687,10867,538,29,78,20296,21965,-6100,-9609,59,-16289,4285,0,0,0,1709861940.0234714,1,18402,18383,18264,18201,18199,18286,18329,18277,15269,329,191,113,15310,13512,-2237,24535,-4974,-16004,5567,0,0,0,1709861940.0234714,2,11802,11762,11944,12152,12282,12284,12265,12225,31180,1089,353,190,21068,-21018,-8320,8314,-1972,16736,491,0,0,0,1709861940.0234714
1,31724,26452,30472,30040,31064,-148,-266,16731,-87,0,-3,1709861940.1197288,0,18613,18625,18543,18524,18540,18523,18521,18556,17373,182,112,35,20038,21896,-6436,-10079,173,-15395,4393,0,0,0,1709861940.134425,1,18592,18741,18753,18752,18776,18860,18909,18796,19107,360,298,137,15160,13363,-1890,24738,-4300,-14471,5331,0,0,0,1709861940.134425,2,11407,11211,11402,11677,11841,11808,11614,11608,27032,1077,352,165,21239,-21071,-7866,8186,-564,16195,-67,0,0,0,1709861940.134425
1,31776,27560,30428,30140,31072,-148,-266,16731,-87,0,-3,1709861940.2343686,0,18635,18633,18638,18633,18629,18576,18558,18550,17780,179,72,30,20187,21692,-6274,-10321,897,-16203,4571,0,0,0,1709861940.2505724,1,18131,18134,18146,18145,18146,18150,18133,18152,14065,21,13,30,15338,13395,-1697,24625,-4462,-14914,5980,0,0,0,1709861940.2505724,2,12174,12071,12035,12046,12065,12091,12031,11936,30913,69,249,209,21152,-21167,-7560,8447,-2046,16783,769,0,0,0,1709861940.2505724
1,31576,28568,30708,30124,31012,-148,-266,16731,-87,0,-3,1709861940.3374877,0,18050,18061,18088,18123,18143,18133,18072,17975,13573,258,101,73,20486,21462,-5999,-10377,2336,-16225,4055,0,0,0,1709861940.3529782,1,17469,17471,17427,17403,17385,17358,17380,17394,8215,206,56,40,15805,13628,-1647,24202,-3522,-14519,6313,0,0,0,1709861940.3529782,2,12316,12288,12280,12285,12293,12308,12279,12238,32750,31,88,72,21020,-21191,-7364,8878,-356,16745,-1075,0,0,0,1709861940.3529782
1,31616,28840,30672,30168,31000,-148,-266,16731,-87,0,-3,1709861940.4531837,0,17520,17486,17470,17418,17295,17238,17245,17268,7868,585,106,165,20676,21416,-5459,-10393,1150,-15634,2630,0,0,0,1709861940.4675484,1,17379,17606,17679,17542,17429,17433,17467,17484,8947,376,338,140,16118,13886,-1360,23864,-2174,-15112,5354,0,0,0,1709861940.4675484,2,11850,11859,11884,11918,11970,12014,12049,12104,30112,417,187,161,20936,-21083,-7333,9347,-1049,15286,1352,0,0,0,1709861940.4675484
1,29488,29520,30716,30196,31016,-148,-266,16731,-87,0,-3,1709861940.563495,0,17361,17479,17492,17419,17470,17543,17555,17398,8645,193,297,58,20546,21534,-5441,-10416,790,-16718,3873,0,0,0,1709861940.5797322,1,17247,17423,17756,18011,18193,18403,18536,18469,12966,2226,1074,623,16010,14063,-1206,23841,-2756,-15884,5356,0,0,0,1709861940.5797322,2,12272,12239,12043,11873,11802,11900,11977,11890,30460,779,379,271,20808,-21091,-7482,9497,-295,17128,159,0,0,0,1709861940.5797322
1,28664,29408,30656,30160,31060,-148,-266,16731,-87,0,-3,1709861940.6826954,0,18259,18250,18287,18324,18360,18364,18396,18381,15549,269,111,61,20511,21547,-5196,-10582,1776,-16839,4517,0,0,0,1709861940.6994736,1,18879,18886,18911,18897,18896,18904,18912,18902,20115,31,48,17,16058,14098,-810,23805,-4127,-15143,7180,0,0,0,1709861940.6994736,2,12407,12415,12394,12365,12318,12283,12241,12168,33054,388,187,156,20961,-20867,-7386,9725,-906,17906,-131,0,0,0,1709861940.6994736
1,31544,30020,30604,30140,31072,-148,-266,16731,-87,0,-3,1709861940.7914739,0,18660,18755,18815,18758,18647,18552,18534,18484,18133,619,77,84,20807,21309,-4125,-10952,3404,-16094,1895,0,0,0,1709861940.8074086,1,18844,18830,18820,18831,18865,18842,18798,18779,19537,83,110,25,16415,13880,287,23701,-1269,-15009,6680,0,0,0,1709861940.8074086,2,12040,12084,12180,12212,12198,12210,12204,12148,31740,300,160,30,21157,-20357,-7287,10432,256,15303,-334,0,0,0,1709861940.8074086
1,29736,29956,30580,30092,31024,-148,-266,16731,-87,0,-3,1709861940.9004416,0,18262,18017,17885,18001,18063,18207,18368,18371,14102,937,164,112,20614,21434,-3433,-11305,4088,-16180,1805,0,0,0,1709861940.9173079,1,17282,17423,17584,17636,17655,17638,17692,17730,9568,562,456,307,16279,13990,1435,23689,-2203,-13591,8457,0,0,0,1709861940.9173079,2,12535,12268,12327,12332,12423,12423,12338,12341,33451,127,293,239,21488,-19429,-7567,11289,2212,16287,-3015,0,0,0,1709861940.9173079
1,31292,27700,30668,30132,31008,-148,-266,16731,-87,0,-3,1709861941.0117533,0,17721,17665,17714,17661,17646,17683,17744,17751,10513,164,111,52,20244,21729,-3058,-11516,4837,-15596,3144,0,0,0,1709861941.0274746,1,17383,17385,17385,17359,17342,17357,17372,17402,7913,91,37,25,15911,14121,2136,23808,-2383,-14974,7806,0,0,0,1709861941.0274746,2,12014,12038,12036,12043,12050,12013,12032,12026,30716,45,18,48,21858,-18857,-7647,11493,-1043,14978,-2560,0,0,0,1709861941.0274746
1,31364,29848,30572,30128,30984,-148,-266,16731,-87,0,-3,1709861941.1286962,0,17288,17283,17302,17259,17221,17238,17264,17256,7039,120,57,37,20039,21866,-2233,-11801,5528,-16504,2105,0,0,0,1709861941.1441438,1,17766,17792,17837,17859,17872,17855,17824,17808,11541,186,30,33,15849,14181,3001,23720,-1768,-14038,9485,0,0,0,1709861941.1441438,2,12138,12107,12001,11832,11744,11722,11758,11874,29640,848,173,92,22239,-18144,-7548,11966,264,16521,-4201,0,0,0,1709861941.1441438
1,31492,29488,30608,30048,30948,-148,-266,16731,-87,0,-3,1709861941.2486303,0,17839,17795,17754,17724,17786,17800,17939,18077,11642,530,216,204,19841,21851,-1270,-12296,5515,-14931,3005,0,0,0,1709861941.2636,1,18814,18806,18815,18736,18685,18696,18723,18810,19013,284,58,66,15629,14344,4231,23580,-868,-14308,8982,0,0,0,1709861941.2636,2,13004,12509,12160,12425,12295,12140,12240,12615,33852,1105,980,375,22860,-17118,-7087,12573,-3137,14529,-4650,0,0,0,1709861941.2636
1,31728,27320,30792,30132,31072,-148,-266,16731,-87,0,-3,1709861941.3627725,0,18432,18362,18481,18589,18536,18361,18223,18124,16036,729,264,235,18685,22572,180,-12857,9475,-14904,2649,0,0,0,1709861941.37939,1,18463,18469,18495,18545,18489,18431,18390,18371,16581,282,68,83,14242,14397,6684,23857,-821,-11178,11420,0,0,0,1709861941.37939,2,12366,12559,12594,12569,12434,12242,12243,12366,33837,718,139,149,23774,-15063,-7425,13294,-1271,15018,-7195,0,0,0,1709861941.37939
1,31720,27244,30696,30116,31092,-148,-266,16731,-87,0,-3,1709861941.484487,0,18097,18144,18197,18229,18306,18389,18430,18430,15150,598,257,196,16902,23824,2221,-12874,8199,-13125,5391,0,0,0,1709861941.5001206,1,17750,17684,17640,17660,17660,17626,17651,17716,10315,170,136,15,12617,14225,8970,24123,-4478,-9685,12074,0,0,0,1709861941.5001206,2,12237,12259,12259,12243,12220,12217,12201,12225,32325,106,8,15,24415,-12589,-8539,14015,-1571,14568,-8525,0,0,0,1709861941.5001206
1,31548,30120,30572,30108,30992,-148,-266,16731,-87,0,-3,1709861941.5972903,0,18054,18002,17929,17893,17912,17913,17934,17914,12479,223,149,83,16331,24271,2923,-12634,9646,-12514,6291,0,0,0,1709861941.6112118,1,17478,17466,17427,17424,17447,17455,17499,17508,8632,157,11,41,12097,14364,9727,24014,-3847,-9209,12832,0,0,0,1709861941.6112118,2,11846,11896,11968,12055,12074,12061,12039,12063,30466,390,183,127,24535,-11590,-9076,14328,-4222,12860,-10859,0,0,0,1709861941.6112118
1,31536,30632,28792,30240,31028,-148,-266,16731,-87,0,-3,1709861941.7139654,0,17540,17487,17488,17439,17389,17385,17419,17502,8577,284,72,53,15882,24580,3627,-12424,8903,-12068,6567,0,0,0,1709861941.729581,1,17834,17744,17626,17605,17655,17700,17688,17746,10526,336,198,48,11742,14324,10458,23906,-5841,-8351,12613,0,0,0,1709861941.729581,2,12127,12131,12108,12099,12121,12117,12069,12031,31267,102,137,48,24623,-11041,-9031,14634,-2272,12160,-8062,0,0,0,1709861941.729581
1,31560,30800,29488,30376,30976,-148,-266,16731,-87,0,-3,1709861941.8249738,0,17516,17523,17556,17677,17738,17745,17803,17823,10309,577,254,168,15755,24511,4063,-12587,7645,-11275,6976,0,0,0,1709861941.840769,1,18458,18516,18532,18476,18421,18373,18350,18361,16415,368,52,17,11613,14333,11000,23720,-5240,-8170,11767,0,0,0,1709861941.840769,2,11989,12035,12048,12017,12008,12002,11997,12010,30569,79,49,43,24588,-10799,-8825,14995,-5064,12330,-7653,0,0,0,1709861941.840769
1,31548,30604,29392,30128,31000,-148,-266,16731,-87,0,-3,1709861941.9417074,0,17940,17952,17958,17996,18049,18020,17984,17991,12818,175,49,60,15920,24213,4259,-12887,9539,-13014,5922,0,0,0,1709861941.9607213,1,18458,18516,18532,18476,18421,18373,18350,18361,16415,368,52,17,11613,14333,11000,23720,-5240,-8170,11767,0,0,0,1709861941.9607213,2,12001,11983,11964,11987,12002,12001,12005,12002,30408,64,34,17,24525,-10716,-8786,15180,-4628,14308,-10298,0,0,0,1709861941.9607213
1,31492,30612,30560,30020,30972,-148,-266,16731,-87,0,-3,1709861942.068693,0,18480,18489,18494,18463,18462,18465,18477,18497,16755,59,29,33,16025,24032,4305,-13080,9496,-12636,5994,0,0,0,1709861942.086096,1,18118,18166,18126,18069,18007,17945,17899,17867,13125,540,201,121,11723,14554,11248,23413,-5369,-9024,13805,0,0,0,1709861942.086096,2,12047,12080,12081,12071,12066,12078,12109,12131,31127,73,88,64,24522,-10776,-8706,15189,-3218,13191,-9014,0,0,0,1709861942.086096
1,31544,30612,30736,25324,30972,-148,-266,16731,-87,0,-3,1709861942.1933458,0,18312,18301,18333,18371,18409,18404,18402,18464,15924,232,130,113,16166,23795,4328,-13329,9707,-11941,5634,0,0,0,1709861942.2085881,1,17270,17298,17298,17238,17168,17114,17146,17204,6664,370,30,4,11706,14534,11427,23347,-4473,-8274,13872,0,0,0,1709861942.2085881,2,12213,12154,12155,12225,12284,12300,12243,12174,32212,261,113,71,24543,-10875,-8366,15275,-2464,12117,-9760,0,0,0,1709861942.2085881
1,31540,30564,30768,26272,30968,-148,-266,16731,-87,0,-3,1709861942.3016238,0,18125,18035,17981,17944,17942,17962,17976,17989,12882,267,127,100,16210,23719,4372,-13396,10295,-12656,5440,0,0,0,1709861942.3175418,1,17539,17536,17550,17538,17549,17538,17552,17568,9298,26,34,36,11630,14482,11578,23343,-4625,-8803,14157,0,0,0,1709861942.3175418,2,12148,12147,12156,12159,12158,12158,12131,12142,31663,41,19,22,24498,-10832,-8364,15379,-1382,13065,-10293,0,0,0,1709861942.3175418
1,31520,30552,30596,29956,30980,-148,-266,16731,-87,0,-3,1709861942.413861,0,17713,17668,17607,17541,17530,17530,17530,17532,9579,328,163,95,16246,23682,4560,-13356,9489,-12123,5368,0,0,0,1709861942.4316483,1,18305,18422,18458,18448,18432,18421,18396,18391,16201,195,117,89,11751,14646,11568,23185,-4325,-8523,13662,0,0,0,1709861942.4316483,2,12112,12134,12154,12175,12177,12147,12127,12135,31625,112,30,28,24414,-10801,-8388,15521,-1852,12552,-9721,0,0,0,1709861942.4316483
1,31556,30532,30488,30000,30940,-148,-266,16731,-87,0,-3,1709861942.5275607,0,17395,17409,17416,17402,17390,17414,17467,17493,8314,135,121,58,16253,23645,4495,-13435,9473,-11920,5181,0,0,0,1709861942.5438118,1,18665,18643,18645,18586,18530,18477,18495,18503,17472,379,63,80,11704,14734,11552,23160,-3505,-8564,13293,0,0,0,1709861942.5438118,2,12062,12075,12082,12080,12081,12092,12095,12093,31124,40,34,18,24456,-10820,-8283,15497,-3123,12074,-9616,0,0,0,1709861942.5438118
1,31576,30588,30604,29844,30172,-148,-266,16731,-87,0,-3,1709861942.6417131,0,17775,17822,17879,17889,17886,17836,17829,17807,11651,204,60,43,16177,23680,4362,-13508,10756,-12438,5164,0,0,0,1709861942.6560159,1,18081,18096,18115,18204,18267,18277,18332,18364,14664,500,218,172,11512,14740,11557,23250,-3807,-8936,13354,0,0,0,1709861942.6560159,2,12219,12185,12160,12160,12163,12157,12130,12150,31788,89,97,43,24530,-10919,-8173,15369,-3705,12684,-9612,0,0,0,1709861942.6560159
1,31552,30572,30528,29836,29588,-148,-266,16731,-87,0,-3,1709861942.7572672,0,18247,18265,18261,18238,18226,18234,18240,18257,14896,63,28,19,16056,23792,4350,-13460,10773,-11992,5246,0,0,0,1709861942.7718458,1,17614,17624,17619,17619,17627,17639,17616,17616,9902,26,28,11,11177,14559,11787,23412,-3234,-8008,14149,0,0,0,1709861942.7718458,2,12158,12166,12165,12148,12146,12157,12149,12154,31707,28,23,13,24547,-10770,-8351,15350,-3241,12674,-10098,0,0,0,1709861942.7718458
1,31584,30616,30592,29932,30860,-148,-266,16731,-87,0,-3,1709861942.8605585,0,18504,18493,18468,18452,18431,18458,18488,18481,16703,119,27,36,15661,24191,4210,-13258,10144,-11558,5458,0,0,0,1709861942.8775089,1,17517,17523,17499,17483,17523,17565,17563,17526,9127,124,82,7,10980,14492,11799,23541,-3695,-7842,13563,0,0,0,1709861942.8775089,2,12079,12082,12093,12119,12131,12130,12111,12120,31328,100,27,25,24651,-10543,-8754,15115,-3677,11350,-9413,0,0,0,1709861942.8775089
1,31524,30580,30540,30000,30952,-148,-266,16731,-87,0,-3,1709861942.9718006,0,18344,18355,18389,18405,18401,18373,18370,18340,15905,126,22,14,14641,24963,3816,-13110,9432,-10733,6289,0,0,0,1709861942.9876158,1,17517,17523,17499,17483,17523,17565,17563,17526,9127,124,82,7,10980,14492,11799,23541,-3695,-7842,13563,0,0,0,1709861942.9876158,2,12109,12076,12060,12070,12072,12077,12082,12093,31103,65,40,22,25189,-9735,-9666,14186,-4011,11202,-9484,0,0,0,1709861942.9876158
1,31548,30564,30576,29332,30864,-148,-266,16731,-87,0,-3,1709861943.0839257,0,17851,17827,17789,17796,17811,17821,17786,17759,11368,37,127,67,12875,26026,3195,-13062,7225,-10264,8852,0,0,0,1709861943.0984259,1,18391,18453,18571,18662,18643,18514,18428,18351,16941,606,57,35,7320,14636,11749,24861,-9832,-6627,11738,0,0,0,1709861943.0984259,2,12041,12029,12024,12043,12048,12051,12042,12039,30781,39,23,12,25937,-8697,-10498,12859,-6007,10699,-7966,0,0,0,1709861943.0984259
1,31588,30516,30636,28768,29852,-148,-266,16731,-87,0,-3,1709861943.1993704,0,17124,17093,17090,17140,17185,17207,17272,17321,6360,390,169,111,11238,26605,2360,-13574,8556,-8077,10333,0,0,0,1709861943.2146745,1,18274,18338,18348,18349,18364,18378,18391,18299,15669,157,121,56,5494,15016,11395,25267,-9947,-5366,12931,0,0,0,1709861943.2146745,2,11995,11995,11981,12031,12032,12013,12026,12028,30565,76,54,40,26715,-8179,-10528,11511,-8443,10923,-8581,0,0,0,1709861943.2146745
1,31536,30556,30692,29208,30828,-148,-266,16731,-87,0,-3,1709861943.3107057,0,17455,17510,17524,17509,17493,17498,17490,17461,8868,99,76,15,11228,26478,1165,-13980,10146,-10485,11369,0,0,0,1709861943.3255928,1,18000,17983,17998,18048,18094,18126,18099,18020,13296,281,41,33,5358,15485,10535,25387,-9964,-5989,14804,0,0,0,1709861943.3255928,2,12066,12066,12042,12005,12027,12071,12063,12076,30880,113,57,33,26831,-8886,-10370,10841,-8588,12269,-11220,0,0,0,1709861943.3255928
1,31540,30504,30532,30032,31000,-148,-266,16731,-87,0,-3,1709861943.428696,0,18069,18069,18090,18112,18117,18089,18034,18019,13527,167,67,32,11659,26316,592,-13968,9700,-10974,8567,0,0,0,1709861943.4443436,1,17827,17795,17699,17682,17698,17744,17815,17898,11086,393,42,59,5823,15699,9779,25455,-7367,-6732,13208,0,0,0,1709861943.4443436,2,12172,12157,12124,12133,12156,12165,12138,12136,31645,25,84,20,26647,-9783,-10283,10603,-6108,11854,-8987,0,0,0,1709861943.4443436
1,31524,30568,30652,28008,31028,-148,-266,16731,-87,0,-3,1709861943.532613,0,18568,18626,18603,18513,18455,18375,18315,18343,16726,609,179,56,12189,26151,-370,-13834,7941,-10309,8186,0,0,0,1709861943.5461874,1,17904,17731,17614,17543,17519,17655,17723,17780,10397,645,106,163,6150,15618,8862,25762,-7414,-7291,11430,0,0,0,1709861943.5461874,2,12075,12136,12210,12344,12370,12340,12327,12320,32585,517,209,134,26448,-10934,-10081,10161,-6972,11314,-7418,0,0,0,1709861943.5461874
1,31500,30568,30728,25760,30980,-148,-266,16731,-87,0,-3,1709861943.6360984,0,18545,18533,18523,18524,18534,18525,18517,18528,17157,21,39,4,12683,25851,-1173,-13908,7125,-10395,10429,0,0,0,1709861943.6498682,1,18040,18012,18017,17972,17944,17922,17969,17942,12746,191,20,65,6470,15570,8182,25937,-9941,-7597,12373,0,0,0,1709861943.6498682,2,12277,12277,12248,12273,12313,12307,12308,12281,32748,101,45,38,26268,-11772,-9834,9932,-8810,11747,-8554,0,0,0,1709861943.6498682
1,31476,30508,30580,28516,31000,-148,-266,16731,-87,0,-3,1709861943.7339587,0,18373,18360,18340,18324,18333,18332,18330,18333,15653,70,50,14,12491,25874,-1059,-14047,8073,-11680,9202,0,0,0,1709861943.7477682,1,18484,18599,18574,18530,18522,18473,18429,18481,17020,269,61,94,6214,15882,8362,25752,-8284,-7704,12796,0,0,0,1709861943.7477682,2,12362,12357,12364,12369,12359,12364,12363,12378,33380,11,26,12,26405,-11487,-9804,9932,-7920,11918,-8360,0,0,0,1709861943.7477682
1,31508,30544,30500,29976,30980,-148,-266,16731,-87,0,-3,1709861943.8305886,0,17546,17595,17632,17632,17579,17507,17470,17466,9355,352,23,28,11788,26164,-927,-14127,8079,-10917,9034,0,0,0,1709861943.8459616,1,18310,18331,18354,18418,18471,18365,18259,18195,15631,411,187,43,5592,16131,8566,25673,-7579,-7261,12943,0,0,0,1709861943.8459616,2,12052,12079,12117,12120,12107,12091,12091,12081,31201,101,57,20,26699,-10986,-9800,9714,-5804,11752,-7813,0,0,0,1709861943.8459616
1,31484,30500,30084,29932,30940,-148,-266,16731,-87,0,-3,1709861943.9261947,0,17161,17121,17145,17176,17196,17215,17207,17206,6355,169,46,27,11203,26427,-1101,-14101,8263,-11150,9055,0,0,0,1709861943.9406693,1,17857,17740,17648,17610,17710,17750,17822,18019,11084,636,169,182,4826,16376,8348,25745,-9329,-7020,10821,0,0,0,1709861943.9406693,2,11983,11906,11877,11904,11917,11926,11922,11897,29795,71,105,92,27074,-10708,-9610,9163,-8305,10900,-6500,0,0,0,1709861943.9406693
1,31524,30704,29576,30276,31024,-148,-266,16731,-87,0,-3,1709861944.0285368,0,17412,17437,17431,17404,17380,17361,17403,17433,8189,122,57,42,10639,26437,-1753,-14449,8746,-8482,10040,0,0,0,1709861944.0433183,1,17600,17618,17496,17405,17410,17288,17168,17134,8047,787,504,177,4404,16489,8137,25816,-7447,-5014,11968,0,0,0,1709861944.0433183,2,11903,11938,12003,12004,12020,12032,12045,12039,30448,207,144,89,27285,-10709,-9300,8849,-8654,10467,-8698,0,0,0,1709861944.0433183
1,31576,30828,29544,30184,30996,-148,-266,16731,-87,0,-3,1709861944.1184561,0,18144,18173,18174,18154,18182,18166,18142,18141,14204,62,45,38,10694,26227,-1941,-14764,7591,-9681,9464,0,0,0,1709861944.1327267,1,17665,17657,17643,17781,17944,18156,18312,18322,12408,1426,451,315,4435,16964,7813,25602,-8573,-6298,12427,0,0,0,1709861944.1327267,2,12251,12213,12180,12160,12142,12131,12126,12138,31805,197,98,69,27381,-11054,-8764,8673,-6990,10327,-9352,0,0,0,1709861944.1327267
1,31508,30548,30388,30032,31000,-148,-266,16731,-87,0,-3,1709861944.2175012,0,18982,18991,18958,18933,18978,18995,19021,19040,20826,161,23,70,10613,25937,-1962,-15321,10956,-11193,9525,0,0,0,1709861944.2310686,1,18165,18208,18261,18284,18191,18167,18183,18161,14548,211,112,49,4332,17400,7885,25303,-7071,-6872,16575,0,0,0,1709861944.2310686,2,12301,12300,12310,12308,12320,12326,12333,12358,33019,76,45,47,27488,-10961,-8617,8599,-5759,11936,-10234,0,0,0,1709861944.2310686
1,31524,30520,30444,30116,31000,-148,-266,16731,-87,0,-3,1709861944.3114727,0,18865,18893,18887,18853,18824,18801,18778,18769,19598,238,75,38,10612,25849,-1984,-15466,10350,-10984,9221,0,0,0,1709861944.3275867,1,18592,18547,18426,18373,18393,18381,18348,18319,16307,363,316,142,4383,17771,7818,25056,-7365,-6436,14863,0,0,0,1709861944.3275867,2,12188,12180,12174,12168,12165,12173,12209,12215,31936,88,42,16,27550,-11013,-8342,8608,-5477,12447,-10314,0,0,0,1709861944.3275867
1,31556,30644,27092,30312,30956,-148,-266,16731,-87,0,-3,1709861944.4141207,0,17910,17926,17961,18018,18059,18069,18086,18163,13120,360,201,169,10849,25781,-1764,-15442,9328,-10211,9283,0,0,0,1709861944.4297187,1,17674,17606,17598,17644,17674,17658,17711,17817,10310,285,200,97,4659,17641,7944,25059,-6830,-6625,13341,0,0,0,1709861944.4297187,2,11853,11897,11900,11852,11795,11765,11737,11706,28969,362,104,75,27491,-11035,-8100,8989,-6252,11522,-9416,0,0,0,1709861944.4297187
1,31536,30340,26708,30316,30924,-148,-266,16731,-87,0,-3,1709861944.5178914,0,17426,17428,17376,17377,17392,17391,17415,17446,8179,125,27,44,11496,25558,-1206,-15399,10494,-10321,8204,0,0,0,1709861944.5318372,1,17650,17625,17549,17489,17501,17503,17466,17456,9167,286,228,90,5119,17356,8336,25040,-7677,-6429,14230,0,0,0,1709861944.5318372,2,12089,12049,12064,12084,12130,12148,12142,12131,31301,197,22,25,27199,-11198,-7987,9746,-7180,12185,-9292,0,0,0,1709861944.5318372
1,31556,30592,29492,30140,30956,-148,-266,16731,-87,0,-3,1709861944.6126173,0,17142,17164,17220,17267,17279,17297,17306,17287,6890,291,140,61,12610,25295,-682,-14988,10202,-11635,7754,0,0,0,1709861944.6258857,1,17592,17590,17637,17625,17628,17647,17656,17637,9940,95,77,30,6185,17116,8527,24900,-5516,-7237,14276,0,0,0,1709861944.6258857,2,12092,12092,12087,12097,12105,12099,12065,12037,31138,84,72,37,26706,-11676,-7998,10508,-4365,13829,-9549,0,0,0,1709861944.6258857
1,31540,30664,30468,30096,31004,-148,-266,16731,-87,0,-3,1709861944.713989,0,17657,17694,17728,17770,17748,17710,17680,17690,10605,184,56,23,14192,24912,-309,-14206,7406,-12456,6001,0,0,0,1709861944.7273664,1,18208,18246,18275,18294,18329,18349,18342,18310,15281,236,80,61,8148,16197,8394,24995,-4298,-9522,12407,0,0,0,1709861944.7273664,2,12067,12020,12013,12037,12099,12171,12163,12099,31133,315,55,30,25466,-12925,-8418,11726,-3904,13290,-7433,0,0,0,1709861944.7273664
1,31508,30044,30596,30084,30988,-148,-266,16731,-87,0,-3,1709861944.8138773,0,18194,18204,18293,18426,18517,18611,18709,18645,16527,972,387,191,16007,23995,-769,-13834,7171,-12312,4354,0,0,0,1709861944.8290248,1,18563,18506,18528,18689,18726,18665,18593,18548,17746,383,180,71,9613,15760,7763,24958,-4781,-9959,9908,0,0,0,1709861944.8290248,2,12722,12989,13066,13169,13013,12912,12919,12848,38101,631,275,179,24669,-14435,-7811,12083,-3967,12299,-5286,0,0,0,1709861944.8290248
1,31712,26344,30712,30188,31032,-148,-266,16731,-87,0,-3,1709861944.911255,0,18582,18562,18490,18416,18386,18370,18335,18334,16403,443,231,124,17081,23443,-1126,-13467,8125,-14476,3298,0,0,0,1709861944.9270916,1,18267,18223,18174,18139,18125,18098,18049,18032,14035,327,225,135,10741,14983,7194,25146,-2650,-11864,10324,0,0,0,1709861944.9270916,2,12197,12173,12161,12163,12179,12165,12161,12151,31814,20,59,25,23740,-15794,-7670,12332,-1806,14351,-5709,0,0,0,1709861944.9270916,3,0,0,0,0,0,0,0,0,0,0,0,0,0,0,0,0,Attribute not found,Attribute not found,Attribute not found,0,0,0,1709861944.9270916
1,31592,29092,30652,30180,31088,-148,-266,16731,-87,0,-3,1709861945.0106514,0,18253,18284,18315,18323,18327,18283,18225,18172,15110,267,82,36,17682,23292,-1325,-12924,5574,-15799,4804,0,0,0,1709861945.022735,1,17646,17652,17654,17666,17641,17597,17575,17558,9917,196,63,55,11213,14539,6869,25291,-4051,-13083,10664,0,0,0,1709861945.022735,2,12032,12029,12032,12039,12033,12027,12025,12069,30749,25,52,35,23212,-16309,-8050,12425,-2884,16462,-5316,0,0,0,1709861945.022735,3,0,0,0,0,0,0,0,0,0,0,0,0,0,0,0,0,Attribute not found,Attribute not found,Attribute not found,0,0,0,1709861945.022735
1,31508,30292,30664,30108,31008,-148,-266,16731,-87,0,-3,1709861945.1141791,0,17741,17685,17673,17686,17727,17729,17741,17714,10624,118,55,30,18527,23146,-1695,-11920,5639,-16474,4134,0,0,0,1709861945.128774,1,17417,17418,17390,17387,17379,17371,17392,17401,8083,83,14,25,11855,13913,6228,25516,-3566,-14219,9248,0,0,0,1709861945.128774,2,12252,12207,12205,12224,12240,12229,12195,12168,32183,54,101,68,22576,-16851,-8625,12485,-2833,16827,-4322,0,0,0,1709861945.128774,3,0,0,0,0,0,0,0,0,0,0,0,0,0,0,0,0,Attribute not found,Attribute not found,Attribute not found,0,0,0,1709861945.128774
1,30564,30492,30540,30152,31160,-148,-266,16731,-87,0,-3,1709861945.219439,0,17780,17729,17708,17685,17797,17816,17709,17681,10833,100,240,74,18834,23150,-2335,-11307,4603,-15055,3650,0,0,0,1709861945.2339258,1,17809,17819,17900,18052,18317,18319,17968,17636,12748,1162,518,139,12166,13344,5620,25813,-2139,-12838,7888,0,0,0,1709861945.2339258,2,12398,12458,12285,12120,12133,12226,12256,12217,32556,512,347,73,21873,-17568,-9288,12272,-1376,16074,-2759,0,0,0,1709861945.2339258,3,0,0,0,0,0,0,0,0,0,0,0,0,0,0,0,0,Attribute not found,Attribute not found,Attribute not found,0,0,0,1709861945.2339258
1,30708,28704,30636,30132,31028,-148,-266,16731,-87,0,-3,1709861945.3238826,0,17940,17861,17721,17595,17564,17708,17788,17738,10843,588,236,182,19099,23152,-2892,-10715,1297,-16049,3587,0,0,0,1709861945.3378386,1,18171,18133,18214,18254,18270,18204,18134,18159,14467,237,120,65,12320,12981,5112,26029,-5001,-14307,7863,0,0,0,1709861945.3378386,2,12101,12198,12247,12301,12333,12361,12326,12292,32623,400,143,114,21369,-18207,-9544,12030,265,15681,-2506,0,0,0,1709861945.3378386,3,0,0,0,0,0,0,0,0,0,0,0,0,0,0,0,0,Attribute not found,Attribute not found,Attribute not found,0,0,0,1709861945.3378386
1,31192,30460,30560,30100,31040,-148,-266,16731,-87,0,-3,1709861945.4256227,0,18162,18159,18156,18175,18147,18104,18036,18035,13902,261,128,77,18984,23271,-3125,-10594,4017,-15764,3903,0,0,0,1709861945.4393823,1,18587,18605,18576,18513,18492,18492,18468,18457,17118,264,131,55,12073,12736,4934,26299,-2544,-14688,6905,0,0,0,1709861945.4393823,2,12106,12100,12083,12045,12056,12082,12006,11890,30831,204,257,153,21380,-18329,-9676,11717,-4552,15868,-1771,0,0,0,1709861945.4393823,3,0,0,0,0,0,0,0,0,0,0,0,0,0,0,0,0,Attribute not found,Attribute not found,Attribute not found,0,0,0,1709861945.4393823
1,31320,30544,30560,30148,31020,-148,-266,16731,-87,0,-3,1709861945.5315485,0,18691,18392,18484,18679,18615,18527,18496,18668,17480,103,538,194,18947,23323,-3114,-10550,3687,-14193,4304,0,0,0,1709861945.546114,1,18512,18443,18351,18261,18173,18152,18193,18218,15231,648,182,181,12026,12771,4889,26312,-4329,-11952,8299,0,0,0,1709861945.546114,2,12427,12476,12442,12311,12261,12338,12321,12248,33288,342,265,114,21472,-18243,-9696,11665,-440,14959,-2850,0,0,0,1709861945.546114,3,0,0,0,0,0,0,0,0,0,0,0,0,0,0,0,0,Attribute not found,Attribute not found,Attribute not found,0,0,0,1709861945.546114
1,28724,28752,30700,30164,31056,-148,-266,16731,-87,0,-3,1709861945.63167,0,18764,18249,17761,17714,17797,18049,18348,18599,14209,2038,452,224,19179,23027,-3566,-10637,861,-14715,4126,0,0,0,1709861945.6474,1,16700,16736,16761,16766,16804,16872,16790,16772,3129,234,84,72,12303,12709,4638,26259,-5196,-13448,7631,0,0,0,1709861945.6474,2,12610,12555,12479,12369,12250,12149,12113,12154,33142,945,323,236,21096,-18787,-9558,11600,-2007,15601,-622,0,0,0,1709861945.6474,3,0,0,0,0,0,0,0,0,0,0,0,0,0,0,0,0,Attribute not found,Attribute not found,Attribute not found,0,0,0,1709861945.6474
1,31140,27316,30692,30140,31032,-148,-266,16731,-87,0,-3,1709861945.737612,0,17856,17860,17870,17854,17812,17775,17803,17813,11571,173,32,25,19574,22647,-3837,-10640,2747,-18146,4588,0,0,0,1709861945.7515888,1,17118,17156,17169,17166,17150,17117,17101,17133,6038,122,26,40,12758,12588,4376,26145,-4252,-16458,7063,0,0,0,1709861945.7515888,2,11833,11856,11897,11915,11922,11907,11883,11900,29577,136,57,57,20893,-19142,-9256,11633,-3761,17883,-337,0,0,0,1709861945.7515888,3,0,0,0,0,0,0,0,0,0,0,0,0,0,0,0,0,Attribute not found,Attribute not found,Attribute not found,0,0,0,1709861945.7515888
1,31564,30456,30564,30128,30988,-148,-266,16731,-87,0,-3,1709861945.8409278,0,17823,17696,17662,17636,17592,17578,17624,17680,10219,357,135,117,19890,22515,-3482,-10453,1508,-17468,3243,0,0,0,1709861945.8554516,1,18087,18075,18034,17993,18018,18091,18112,18095,13433,207,88,9,12941,12389,4466,26135,-4154,-15532,7382,0,0,0,1709861945.8554516,2,11757,11635,11208,10828,10954,11514,11991,12295,26646,2591,488,361,20718,-19226,-9245,11815,1982,17797,-4809,0,0,0,1709861945.8554516,3,0,0,0,0,0,0,0,0,0,0,0,0,0,0,0,0,Attribute not found,Attribute not found,Attribute not found,0,0,0,1709861945.8554516
1,31600,29604,30568,30124,31020,-148,-266,16731,-87,0,-3,1709861945.9413161,0,18295,18328,18317,18271,18231,18232,18295,18385,15282,212,128,91,19950,22350,-3730,-10606,-188,-15422,2360,0,0,0,1709861945.9549632,1,18724,18648,18660,18658,18692,18753,18833,18813,18709,363,104,11,13035,12579,4269,26030,-5790,-14690,4266,0,0,0,1709861945.9549632,2,12649,12715,12694,12681,12754,12797,12708,12523,35984,277,308,93,20899,-19428,-8777,11519,-3304,13738,-763,0,0,0,1709861945.9549632,3,0,0,0,0,0,0,0,0,0,0,0,0,0,0,0,0,Attribute not found,Attribute not found,Attribute not found,0,0,0,1709861945.9549632
1,31788,27184,30712,30216,31092,-148,-266,16731,-87,0,-3,1709861946.0415835,0,18031,17969,17853,17771,17790,17812,17822,17834,11810,408,228,92,19839,22343,-3854,-10784,2541,-15354,2740,0,0,0,1709861946.0559735,1,18302,18425,18469,18324,18229,18247,18323,18382,15629,332,263,112,12851,12269,4556,26220,-3372,-13987,5784,0,0,0,1709861946.0559735,2,12388,12327,12270,12249,12210,12174,12147,12166,32395,368,200,135,20972,-19436,-8662,11460,-1369,15344,-707,0,0,0,1709861946.0559735,3,0,0,0,0,0,0,0,0,0,0,0,0,0,0,0,0,Attribute not found,Attribute not found,Attribute not found,0,0,0,1709861946.0559735
1,31644,29108,30632,30096,31036,-148,-266,16731,-87,0,-3,1709861946.1476882,0,17552,17596,17632,17643,17641,17602,17537,17513,9644,260,48,10,19824,22422,-3675,-10709,1450,-16932,3243,0,0,0,1709861946.1630273,1,17670,17686,17677,17668,17674,17680,17697,17686,10366,31,32,23,12760,12216,4759,26253,-3352,-15288,6580,0,0,0,1709861946.1630273,2,11980,11976,11977,11998,11983,11988,12005,11997,30368,37,36,21,20951,-19208,-8944,11663,-1949,17300,94,0,0,0,1709861946.1630273,3,0,0,0,0,0,0,0,0,0,0,0,0,0,0,0,0,Attribute not found,Attribute not found,Attribute not found,0,0,0,1709861946.1630273
1,31588,30312,30544,30164,31076,-148,-266,16731,-87,0,-3,1709861946.2650797,0,18088,18103,18125,18053,17973,17914,17908,17987,13079,445,36,46,19943,22444,-3658,-10447,3858,-15939,3255,0,0,0,1709861946.2774062,1,17521,17565,17605,17619,17585,17532,17507,17509,9371,231,31,10,12831,12194,4677,26244,-1988,-15008,5636,0,0,0,1709861946.2774062,2,12102,12114,12115,12120,12097,12089,12132,12168,31401,65,97,46,20784,-19343,-9115,11606,-4122,16429,41,0,0,0,1709861946.2774062,3,0,0,0,0,0,0,0,0,0,0,0,0,0,0,0,0,Attribute not found,Attribute not found,Attribute not found,0,0,0,1709861946.2774062
1,31536,30744,27156,30252,30988,-148,-266,16731,-87,0,-3,1709861946.3651116,0,18494,18492,18458,18432,18407,18381,18410,18472,16474,217,45,19,19862,22627,-3663,-10200,2886,-14802,2713,0,0,0,1709861946.3806093,1,17746,17767,17783,17820,17840,17865,17936,17919,11604,306,170,95,12734,12304,4484,26274,-2389,-13652,6999,0,0,0,1709861946.3806093,2,12208,12223,12244,12231,12213,12204,12170,12143,32100,159,53,43,20759,-19478,-9084,11449,-1120,15725,-1869,0,0,0,1709861946.3806093,3,0,0,0,0,0,0,0,0,0,0,0,0,0,0,0,0,Attribute not found,Attribute not found,Attribute not found,0,0,0,1709861946.3806093
1,31556,30800,29284,30376,30980,-148,-266,16731,-87,0,-3,1709861946.4665897,0,18530,18504,18480,18440,18392,18406,18455,18461,16596,235,15,61,19814,22635,-3691,-10266,1559,-15814,3717,0,0,0,1709861946.480074,1,18342,18374,18415,18415,18423,18426,18404,18358,16085,158,60,8,12636,12154,4711,26351,-3846,-14629,6928,0,0,0,1709861946.480074,2,11967,11959,11964,12002,12029,12024,11998,12012,30419,133,46,29,20765,-19502,-9025,11443,-1252,16823,-869,0,0,0,1709861946.480074,3,0,0,0,0,0,0,0,0,0,0,0,0,0,0,0,0,Attribute not found,Attribute not found,Attribute not found,0,0,0,1709861946.480074
1,31592,30568,30168,30136,31080,-148,-266,16731,-87,0,-3,1709861946.5665195,0,18037,18022,18051,18078,18137,18187,18206,18173,13819,370,93,58,19887,22576,-3651,-10269,2204,-17558,3056,0,0,0,1709861946.5795338,1,18856,18858,18841,18802,18803,18814,18821,18802,19525,98,68,24,12686,12041,4791,26364,-3453,-15770,7184,0,0,0,1709861946.5795338,2,11989,11973,11960,11948,11959,11966,11960,11961,30180,44,41,16,20624,-19453,-9279,11580,-1799,18371,-583,0,0,0,1709861946.5795338,3,0,0,0,0,0,0,0,0,0,0,0,0,0,0,0,0,Attribute not found,Attribute not found,Attribute not found,0,0,0,1709861946.5795338
1,31536,30520,30520,30024,31048,-148,-266,16731,-87,0,-3,1709861946.6686418,0,17722,17765,17793,17816,17747,17682,17681,17696,10830,260,65,31,19961,22548,-3854,-10112,1743,-15807,3046,0,0,0,1709861946.6827729,1,18432,18467,18504,18512,18549,18602,18617,18578,17189,304,141,74,12699,11915,4629,26444,-3116,-14766,5921,0,0,0,1709861946.6827729,2,12063,12086,12062,12027,12038,12040,12046,12075,30901,92,25,44,20470,-19589,-9469,11468,-876,15962,-645,0,0,0,1709861946.6827729,3,0,0,0,0,0,0,0,0,0,0,0,0,0,0,0,0,Attribute not found,Attribute not found,Attribute not found,0,0,0,1709861946.6827729
1,31596,30588,30712,27656,30968,-148,-266,16731,-87,0,-3,1709861946.7726455,0,17398,17448,17392,17306,17264,17258,17294,17377,7665,366,33,52,19903,22565,-4094,-10093,1546,-14796,2952,0,0,0,1709861946.7862585,1,17383,17435,17554,17669,17738,17789,17801,17744,10041,779,300,167,12492,11549,4709,26690,-2293,-13506,5466,0,0,0,1709861946.7862585,2,11970,11966,12007,12029,12024,12055,12061,12009,30585,166,75,23,20525,-19663,-9504,11213,-1253,15457,-334,0,0,0,1709861946.7862585,3,0,0,0,0,0,0,0,0,0,0,0,0,0,0,0,0,Attribute not found,Attribute not found,Attribute not found,0,0,0,1709861946.7862585
1,31464,30536,30792,26376,30960,-148,-266,16731,-87,0,-3,1709861946.8750126,0,17668,17705,17767,17818,17826,17797,17778,17768,11055,261,98,60,19826,22572,-4163,-10200,1171,-17163,3767,0,0,0,1709861946.8898077,1,17500,17477,17497,17535,17568,17564,17595,17604,9268,223,100,56,12377,11427,4856,26769,-6096,-16157,5335,0,0,0,1709861946.8898077,2,12224,12221,12202,12218,12221,12262,12281,12295,32388,164,48,22,20564,-19615,-9545,11190,-3374,16699,1442,0,0,0,1709861946.8898077,3,0,0,0,0,0,0,0,0,0,0,0,0,0,0,0,0,Attribute not found,Attribute not found,Attribute not found,0,0,0,1709861946.8898077
1,31552,30592,30676,29232,30984,-148,-266,16731,-87,0,-3,1709861946.9785206,0,18405,18396,18377,18382,18416,18471,18496,18495,16366,252,52,40,19885,22588,-4099,-10074,1365,-16802,3579,0,0,0,1709861946.9912457,1,18148,18161,18186,18216,18230,18249,18243,18219,14580,186,56,23,12437,11495,4839,26715,-4454,-15195,5551,0,0,0,1709861946.9912457,2,12466,12446,12414,12415,12420,12439,12462,12480,34006,131,14,8,20417,-19625,-9720,11289,-949,16538,-156,0,0,0,1709861946.9912457,3,0,0,0,0,0,0,0,0,0,0,0,0,0,0,0,0,Attribute not found,Attribute not found,Attribute not found,0,0,0,1709861946.9912457
1,31516,30548,30592,30100,30960,-148,-266,16731,-87,0,-3,1709861947.082784,0,18514,18512,18479,18441,18436,18440,18467,18513,16730,180,4,26,19827,22678,-4261,-9917,1003,-15220,3308,0,0,0,1709861947.0972917,1,18344,18314,18271,18249,18241,18259,18292,18316,15214,191,23,20,12338,11584,4686,26750,-3846,-14107,5849,0,0,0,1709861947.0972917,2,12247,12247,12210,12216,12204,12180,12154,12131,32053,166,118,75,20428,-19666,-9819,11112,-868,15846,-861,0,0,0,1709861947.0972917,3,0,0,0,0,0,0,0,0,0,0,0,0,0,0,0,0,Attribute not found,Attribute not found,Attribute not found,0,0,0,1709861947.0972917
1,31584,30580,30620,29968,30824,-148,-266,16731,-87,0,-3,1709861947.183897,0,18073,18139,18232,18244,18264,18213,18197,18149,14439,314,100,74,19724,22684,-4493,-10007,2260,-14683,3648,0,0,0,1709861947.200594,1,17954,18011,18075,18084,18017,17975,17910,17834,12788,425,69,95,12238,11513,4649,26833,-4384,-13464,5924,0,0,0,1709861947.200594,2,12013,12019,12026,12002,12000,12004,11981,11961,30470,84,60,31,20483,-19807,-9684,10877,-467,14996,-894,0,0,0,1709861947.200594,3,0,0,0,0,0,0,0,0,0,0,0,0,0,0,0,0,Attribute not found,Attribute not found,Attribute not found,0,0,0,1709861947.200594
1,31464,30636,30556,29856,29320,-148,-266,16731,-87,0,-3,1709861947.291538,0,17460,17472,17490,17487,17444,17419,17386,17348,8434,243,62,83,19732,22627,-4480,-10128,925,-17543,3802,0,0,0,1709861947.3059862,1,17556,17541,17522,17526,17577,17590,17574,17530,9344,103,83,18,12153,11260,4956,26924,-4928,-16179,6423,0,0,0,1709861947.3059862,2,11880,11863,11848,11851,11874,11898,11901,11912,29491,123,5,19,20456,-19784,-9695,10958,-776,18303,-377,0,0,0,1709861947.3059862,3,0,0,0,0,0,0,0,0,0,0,0,0,0,0,0,0,Attribute not found,Attribute not found,Attribute not found,0,0,0,1709861947.3059862
1,31512,30564,30592,29928,30632,-148,-266,16731,-87,0,-3,1709861947.3980947,0,17571,17576,17566,17585,17576,17565,17551,17548,9466,54,31,23,19788,22591,-4284,-10182,820,-16464,3437,0,0,0,1709861947.4115205,1,17858,17878,17869,17840,17835,17815,17800,17790,11613,152,67,17,12232,11297,5164,26833,-4568,-15074,6892,0,0,0,1709861947.4115205,2,12157,12161,12143,12118,12133,12125,12091,12088,31479,102,97,20,20461,-19673,-9688,11155,-597,17471,-958,0,0,0,1709861947.4115205,3,0,0,0,0,0,0,0,0,0,0,0,0,0,0,0,0,Attribute not found,Attribute not found,Attribute not found,0,0,0,1709861947.4115205
1,31508,30572,30612,29996,30936,-148,-266,16731,-87,0,-3,1709861947.4973178,0,17781,17782,17779,17770,17747,17738,17757,17779,11061,85,30,4,19659,22715,-4300,-10149,896,-15734,3475,0,0,0,1709861947.5114844,1,18173,18225,18270,18273,18245,18230,18211,18193,14748,173,63,13,12066,11382,5248,26856,-4548,-14811,5921,0,0,0,1709861947.5114844,2,12124,12126,12130,12113,12114,12113,12134,12149,31467,49,34,27,20549,-19521,-9868,11101,-572,16059,-449,0,0,0,1709861947.5114844,3,0,0,0,0,0,0,0,0,0,0,0,0,0,0,0,0,Attribute not found,Attribute not found,Attribute not found,0,0,0,1709861947.5114844
1,31504,30512,30572,29844,30980,-148,-266,16731,-87,0,-3,1709861947.5955555,0,18066,18058,18112,18138,18196,18253,18236,18177,14164,376,86,45,19448,22919,-4266,-10112,591,-16208,3305,0,0,0,1709861947.6100109,1,18452,18502,18503,18443,18376,18309,18261,18321,16095,481,79,32,11814,11463,5344,26915,-5001,-14286,6313,0,0,0,1709861947.6100109,2,12135,12180,12186,12183,12182,12164,12162,12165,31821,68,31,45,20680,-19350,-10010,11031,-1180,16945,-1012,0,0,0,1709861947.6100109,3,0,0,0,0,0,0,0,0,0,0,0,0,0,0,0,0,Attribute not found,Attribute not found,Attribute not found,0,0,0,1709861947.6100109
1,31564,30584,30744,26108,31008,-148,-266,16731,-87,0,-3,1709861947.7039332,0,18561,18561,18558,18522,18498,18558,18677,18723,17586,331,216,83,19258,22954,-4216,-10411,1193,-16246,3825,0,0,0,1709861947.7214446,1,18374,18378,18380,18359,18326,18283,18245,18245,15518,284,94,62,11607,11393,5689,26964,-4811,-15304,6485,0,0,0,1709861947.7214446,2,12263,12253,12167,12129,12138,12180,12241,12283,32118,314,22,39,20883,-19170,-9899,11062,-1120,16673,-507,0,0,0,1709861947.7214446,3,0,0,0,0,0,0,0,0,0,0,0,0,0,0,0,0,Attribute not found,Attribute not found,Attribute not found,0,0,0,1709861947.7214446
1,31504,30632,30776,25388,31012,-148,-266,16731,-87,0,-3,1709861947.802904,0,18559,18551,18534,18513,18498,18480,18490,18518,17071,146,33,7,19141,22935,-4196,-10675,2290,-16125,4115,0,0,0,1709861947.817408,1,17847,17857,17846,17846,17857,17861,17881,17872,11795,56,23,29,11505,11463,5902,26932,-4998,-14396,7223,0,0,0,1709861947.817408,2,12164,12160,12143,12147,12141,12141,12132,12147,31639,43,30,9,21063,-19031,-9740,11102,-2798,16318,-2062,0,0,0,1709861947.817408,3,0,0,0,0,0,0,0,0,0,0,0,0,0,0,0,0,Attribute not found,Attribute not found,Attribute not found,0,0,0,1709861947.817408
1,31524,30592,30584,29908,30980,-148,-266,16731,-87,0,-3,1709861947.9039707,0,18100,18105,18120,18133,18140,18135,18127,18100,13888,84,9,10,19054,23029,-4197,-10629,1240,-16106,4976,0,0,0,1709861947.9207613,1,17551,17555,17560,17565,17558,17518,17514,17483,9232,135,43,45,11433,11752,5819,26856,-4925,-15016,6635,0,0,0,1709861947.9207613,2,12049,12077,12089,12116,12124,12111,12101,12090,31220,118,24,33,21063,-19067,-9796,10990,-3409,16750,-469,0,0,0,1709861947.9207613,3,0,0,0,0,0,0,0,0,0,0,0,0,0,0,0,0,Attribute not found,Attribute not found,Attribute not found,0,0,0,1709861947.9207613
1,31464,30540,30628,30064,31028,-148,-266,16731,-87,0,-3,1709861948.0127773,0,17504,17554,17548,17440,17345,17317,17316,17286,8238,553,145,109,19061,23078,-4238,-10491,1372,-15441,3825,0,0,0,1709861948.0274005,1,17578,17555,17550,17549,17547,17514,17474,17456,9151,170,119,70,11386,11682,5786,26914,-4447,-14093,6486,0,0,0,1709861948.0274005,2,12056,12057,12048,12056,12037,12030,12062,12081,30891,57,52,23,21038,-19114,-9815,10939,-2177,16231,-1003,0,0,0,1709861948.0274005,3,0,0,0,0,0,0,0,0,0,0,0,0,0,0,0,0,Attribute not found,Attribute not found,Attribute not found,0,0,0,1709861948.0274005
1,31560,30768,29612,30360,30960,-148,-266,16731,-87,0,-3,1709861948.1229596,0,17401,17445,17478,17447,17399,17389,17393,17393,8273,162,71,7,18939,23148,-4346,-10515,1573,-15540,4149,0,0,0,1709861948.1385713,1,18155,18170,18187,18150,18089,18055,18093,18159,13986,228,91,28,11357,11705,5710,26932,-4359,-14040,5932,0,0,0,1709861948.1385713,2,12236,12235,12211,12189,12188,12180,12169,12178,32050,118,65,17,21144,-19219,-9476,10849,-1970,15374,-1053,0,0,0,1709861948.1385713,3,0,0,0,0,0,0,0,0,0,0,0,0,0,0,0,0,Attribute not found,Attribute not found,Attribute not found,0,0,0,1709861948.1385713
1,31508,30576,29508,30144,31048,-148,-266,16731,-87,0,-3,1709861948.2272706,0,17913,17913,17913,17881,17868,17864,17889,17904,12073,104,22,8,18902,23127,-4273,-10654,1644,-16404,4424,0,0,0,1709861948.2433915,1,18957,18952,18935,18908,18913,18904,18938,18969,20404,121,21,33,11260,11569,6016,26965,-4532,-14800,7729,0,0,0,1709861948.2433915,2,12071,12049,12041,12065,12092,12111,12109,12132,31134,160,39,33,21096,-19077,-9677,11015,-1770,17767,-1241,0,0,0,1709861948.2433915,3,0,0,0,0,0,0,0,0,0,0,0,0,0,0,0,0,Attribute not found,Attribute not found,Attribute not found,0,0,0,1709861948.2433915
1,31472,30600,30532,30100,31048,-148,-266,16731,-87,0,-3,1709861948.3295343,0,18386,18354,18351,18342,18305,18289,18250,18250,15455,220,103,100,19020,23052,-4316,-10591,1924,-16364,3773,0,0,0,1709861948.3444138,1,18739,18739,18720,18684,18678,18720,18742,18716,18666,101,74,28,11321,11587,5908,26956,-4354,-14594,7130,0,0,0,1709861948.3444138,2,11451,11630,11847,11941,11988,11940,11847,11961,29069,777,418,405,20977,-19110,-9869,11015,-228,16479,-1282,0,0,0,1709861948.3444138,3,0,0,0,0,0,0,0,0,0,0,0,0,0,0,0,0,Attribute not found,Attribute not found,Attribute not found,0,0,0,1709861948.3444138
1,31512,28724,30664,30136,31088,-148,-266,16731,-87,0,-3,1709861948.435022,0,18367,18346,18314,18292,18174,18093,18117,18167,14798,544,111,124,18948,22859,-4878,-10889,178,-14830,5328,0,0,0,1709861948.4499235,1,17598,17607,17555,17573,17729,17795,17730,17680,10195,427,154,81,11282,11499,5783,27037,-5660,-14297,4510,0,0,0,1709861948.4499235,2,12861,12821,12517,12260,12320,12418,12470,12608,34739,1075,418,12,21109,-19321,-9534,10684,-4353,14745,909,0,0,0,1709861948.4499235,3,0,0,0,0,0,0,0,0,0,0,0,0,0,0,0,0,Attribute not found,Attribute not found,Attribute not found,0,0,0,1709861948.4499235
1,31688,27844,30752,30152,31032,-148,-266,16731,-87,0,-3,1709861948.540693,0,18006,18016,18000,17961,17943,17940,17951,17980,12725,157,15,9,18817,22983,-4748,-10915,-1190,-15213,4848,0,0,0,1709861948.5543745,1,17479,17467,17414,17363,17341,17337,17309,17286,7924,306,182,108,11120,11324,6019,27126,-6898,-14587,4980,0,0,0,1709861948.5543745,2,12143,12145,12141,12154,12163,12163,12142,12146,31661,39,24,6,21195,-19288,-9416,10677,-865,15572,10,0,0,0,1709861948.5543745,3,0,0,0,0,0,0,0,0,0,0,0,0,0,0,0,0,Attribute not found,Attribute not found,Attribute not found,0,0,0,1709861948.5543745
1,31548,29280,30640,30052,31032,-148,-266,16731,-87,0,-3,1709861948.652958,0,17428,17397,17417,17435,17520,17600,17555,17467,8747,371,97,40,18830,23049,-4374,-10909,2678,-16888,4098,0,0,0,1709861948.6658955,1,17724,17701,17725,17767,17745,17780,17875,17839,11084,258,181,46,11023,11379,6355,27066,-2974,-14678,9050,0,0,0,1709861948.6658955,2,12166,12152,12056,12014,12147,12243,12212,12060,31514,253,324,77,21235,-18972,-9650,10953,-89,19149,-4668,0,0,0,1709861948.6658955,3,0,0,0,0,0,0,0,0,0,0,0,0,0,0,0,0,Attribute not found,Attribute not found,Attribute not found,0,0,0,1709861948.6658955
1,31524,29920,30668,30116,31048,-148,-266,16731,-87,0,-3,1709861948.757105,0,17293,17255,17155,17104,17149,17202,17260,17338,6684,417,30,63,18957,23024,-4450,-10709,1257,-15903,3152,0,0,0,1709861948.769528,1,18239,18248,18307,18306,18301,18351,18389,18331,15400,208,160,10,11124,11251,6369,27075,-5119,-14217,7514,0,0,0,1709861948.769528,2,12171,12162,12167,12190,12198,12184,12156,12144,31836,80,47,21,21055,-18938,-9933,11105,1973,17401,-2754,0,0,0,1709861948.769528,3,0,0,0,0,0,0,0,0,0,0,0,0,0,0,0,0,Attribute not found,Attribute not found,Attribute not found,0,0,0,1709861948.769528
1,29816,30164,30620,30124,30996,-148,-266,16731,-87,0,-3,1709861948.8585162,0,17611,17440,17312,17260,17308,17253,16870,16875,6857,862,924,444,18882,22992,-4832,-10745,-30,-15414,4621,0,0,0,1709861948.8713531,1,18520,18432,18441,18467,18471,18542,18671,18784,17256,566,302,121,11113,11117,6327,27145,-3773,-14744,5422,0,0,0,1709861948.8713531,2,11995,11778,11299,11400,11585,11771,11987,12096,28375,1484,298,218,20791,-19133,-10128,11092,288,15904,-1711,0,0,0,1709861948.8713531,3,0,0,0,0,0,0,0,0,0,0,0,0,0,0,0,0,Attribute not found,Attribute not found,Attribute not found,0,0,0,1709861948.8713531
1,30032,28304,30696,30172,31000,-148,-266,16731,-87,0,-3,1709861948.9605706,0,17713,17739,17789,17781,17788,17762,17747,17765,11012,109,57,66,18744,23089,-5102,-10653,660,-15625,5628,0,0,0,1709861948.9740164,1,18438,18442,18434,18378,18362,18352,18355,18381,16070,199,36,20,10971,10916,6312,27287,-5191,-15198,4722,0,0,0,1709861948.9740164,2,12068,12073,12076,12063,12047,12041,12041,12047,30919,76,4,9,20673,-19344,-10176,10902,-4242,15635,733,0,0,0,1709861948.9740164,3,0,0,0,0,0,0,0,0,0,0,0,0,0,0,0,0,Attribute not found,Attribute not found,Attribute not found,0,0,0,1709861948.9740164
1,30836,30324,30556,30148,31028,-148,-266,16731,-87,0,-3,1709861949.060902,0,18331,18425,18468,18417,18338,18267,18271,18226,15671,444,85,52,18709,23249,-4754,-10525,3285,-17250,4459,0,0,0,1709861949.074863,1,17854,17894,17924,17930,17907,17868,17801,17742,11848,321,96,67,10852,10553,6726,27379,-6663,-14696,6195,0,0,0,1709861949.074863,2,12062,12078,12069,12050,12040,12020,12027,12055,30865,103,9,22,20622,-19126,-10419,11150,2205,16415,-1801,0,0,0,1709861949.074863,3,0,0,0,0,0,0,0,0,0,0,0,0,0,0,0,0,Attribute not found,Attribute not found,Attribute not found,0,0,0,1709861949.074863
1,31532,30388,30540,30148,31088,-148,-266,16731,-87,0,-3,1709861949.1596522,0,18788,18676,18625,18632,18712,18834,18944,18995,19134,722,135,84,18789,23324,-4450,-10350,2,-15673,3671,0,0,0,1709861949.1730785,1,17703,17663,17586,17527,17532,17468,17434,17468,9309,425,254,79,10857,10570,6814,27348,-6018,-14339,7483,0,0,0,1709861949.1730785,2,12248,11761,11402,11522,11978,12401,12555,12543,30874,2389,285,21,20708,-19030,-10348,11220,11,16656,-351,0,0,0,1709861949.1730785,3,0,0,0,0,0,0,0,0,0,0,0,0,0,0,0,0,Attribute not found,Attribute not found,Attribute not found,0,0,0,1709861949.1730785
1,31704,26028,30816,30140,31088,-148,-266,16731,-87,0,-3,1709861949.2696152,0,17788,17951,18059,18180,18231,18055,17849,17809,12850,875,112,109,18721,23269,-4521,-10562,322,-15358,3513,0,0,0,1709861949.2838104,1,17223,17267,17425,17558,17530,17416,17237,17045,7629,893,121,175,10837,10497,6885,27366,-5243,-14181,6733,0,0,0,1709861949.2838104,2,11630,11580,11641,11668,11780,12063,12436,12610,29872,1811,920,520,20905,-19114,-9936,11084,455,17059,-591,0,0,0,1709861949.2838104,3,0,0,0,0,0,0,0,0,0,0,0,0,0,0,0,0,Attribute not found,Attribute not found,Attribute not found,0,0,0,1709861949.2838104
1,31720,27224,30780,30148,31068,-148,-266,16731,-87,0,-3,1709861949.3716292,0,17551,17511,17520,17532,17541,17546,17536,17513,9178,39,37,48,18749,23204,-4490,-10668,1714,-15740,4316,0,0,0,1709861949.3859234,1,17570,17606,17625,17642,17646,17686,17710,17706,10119,206,131,66,10841,10380,7041,27370,-5348,-14763,6067,0,0,0,1709861949.3859234,2,12176,12168,12120,12082,12069,12074,12091,12125,31368,214,48,12,20821,-19126,-9916,11238,-1455,16249,-360,0,0,0,1709861949.3859234,3,0,0,0,0,0,0,0,0,0,0,0,0,0,0,0,0,Attribute not found,Attribute not found,Attribute not found,0,0,0,1709861949.3859234
1,31592,29920,30564,30084,31028,-148,-266,16731,-87,0,-3,1709861949.472049,0,17253,17291,17335,17412,17458,17385,17355,17372,7789,305,110,111,18905,23187,-4069,-10599,-778,-16783,4093,0,0,0,1709861949.4862852,1,18376,18397,18500,18605,18622,18609,18584,18574,17195,468,193,86,10908,10306,7329,27295,-5455,-15106,6369,0,0,0,1709861949.4862852,2,12276,12283,12273,12271,12249,12230,12241,12290,32577,95,49,25,20755,-19031,-9957,11483,-1373,15810,-523,0,0,0,1709861949.4862852,3,0,0,0,0,0,0,0,0,0,0,0,0,0,0,0,0,Attribute not found,Attribute not found,Attribute not found,0,0,0,1709861949.4862852
1,31532,30624,30352,30128,31028,-148,-266,16731,-87,0,-3,1709861949.5650961,0,17836,17789,17796,17863,17889,17844,17769,17786,11500,152,160,41,18933,23170,-4031,-10601,1254,-15652,3856,0,0,0,1709861949.5797043,1,18669,18630,18632,18650,18638,18678,18741,18869,18435,334,221,120,10984,10526,7273,27196,-5175,-14452,6872,0,0,0,1709861949.5797043,2,12213,12246,12295,12313,12284,12241,12208,12193,32456,232,19,10,20826,-19065,-9779,11450,449,15895,-949,0,0,0,1709861949.5797043,3,0,0,0,0,0,0,0,0,0,0,0,0,0,0,0,0,Attribute not found,Attribute not found,Attribute not found,0,0,0,1709861949.5797043
1,31564,30792,26776,30312,31048,-148,-266,16731,-87,0,-3,1709861949.664193,0,18019,18078,18106,18104,18078,18072,18065,18056,13506,118,74,29,18847,23147,-4096,-10779,2320,-15503,3896,0,0,0,1709861949.6794755,1,17950,18007,18140,18197,18181,18163,18138,18086,13790,420,185,54,10923,10720,7335,27128,-4320,-14016,6454,0,0,0,1709861949.6794755,2,11972,11985,11981,11986,11991,11995,11997,11991,30362,34,15,16,20976,-19079,-9527,11366,-163,15561,-1174,0,0,0,1709861949.6794755,3,0,0,0,0,0,0,0,0,0,0,0,0,0,0,0,0,Attribute not found,Attribute not found,Attribute not found,0,0,0,1709861949.6794755
1,31528,30764,27188,30240,31048,-148,-266,16731,-87,0,-3,1709861949.7776287,0,18342,18386,18422,18408,18406,18398,18389,18386,16065,96,63,47,18832,23115,-4055,-10889,2063,-15899,4035,0,0,0,1709861949.792989,1,17570,17549,17548,17575,17576,17569,17573,17586,9474,48,49,3,10891,10713,7527,27091,-4214,-15040,6591,0,0,0,1709861949.792989,2,11985,11966,11956,11959,11975,11979,11979,11985,30248,54,25,4,20948,-19062,-9541,11434,-1245,16535,-761,0,0,0,1709861949.792989,3,0,0,0,0,0,0,0,0,0,0,0,0,0,0,0,0,Attribute not found,Attribute not found,Attribute not found,0,0,0,1709861949.792989
1,31532,30540,30444,30056,30988,-148,-266,16731,-87,0,-3,1709861949.884827,0,18508,18518,18548,18569,18587,18617,18631,18616,17522,219,97,46,18885,23034,-4000,-10989,1748,-16293,4154,0,0,0,1709861949.8985755,1,17517,17503,17505,17522,17549,17553,17540,17521,9138,97,24,4,10909,10680,7654,27061,-4472,-15028,6491,0,0,0,1709861949.8985755,2,12004,11994,11975,11981,11980,12014,12044,12061,30517,154,48,18,20859,-19023,-9704,11523,-1168,16892,-835,0,0,0,1709861949.8985755,3,0,0,0,0,0,0,0,0,0,0,0,0,0,0,0,0,Attribute not found,Attribute not found,Attribute not found,0,0,0,1709861949.8985755
1,31444,30536,30580,29232,30992,-148,-266,16731,-87,0,-3,1709861949.9859073,0,18094,18168,18205,18168,18085,17980,17910,17817,13355,684,175,151,18901,22983,-4130,-11019,1507,-15556,3538,0,0,0,1709861950.0004833,1,17839,17886,17902,17841,17791,17793,17823,17868,11671,182,99,49,10849,10582,7619,27133,-4422,-14442,7586,0,0,0,1709861950.0004833,2,12029,12043,12030,12006,11946,11957,11936,11906,30316,237,88,100,20825,-19058,-9825,11425,-1310,16517,-1617,0,0,0,1709861950.0004833,3,0,0,0,0,0,0,0,0,0,0,0,0,0,0,0,0,Attribute not found,Attribute not found,Attribute not found,0,0,0,1709861950.0004833
1,31532,30564,30712,25720,31028,-148,-266,16731,-87,0,-3,1709861950.0849237,0,17712,17686,17664,17645,17650,17674,17693,17690,10342,114,25,22,18833,22968,-4203,-11140,1970,-16108,3949,0,0,0,1709861950.099849,1,18485,18547,18516,18471,18447,18469,18470,18442,16775,141,116,29,10717,10416,7723,27221,-4487,-14551,6566,0,0,0,1709861950.099849,2,11978,11959,11952,11969,11994,12059,12115,12115,30605,337,115,49,20928,-18952,-9812,11425,-1048,16990,-1181,0,0,0,1709861950.099849,3,0,0,0,0,0,0,0,0,0,0,0,0,0,0,0,0,Attribute not found,Attribute not found,Attribute not found,0,0,0,1709861950.099849
1,31504,30584,30668,25496,31000,-148,-266,16731,-87,0,-3,1709861950.1851563,0,17882,17857,17813,17761,17746,17730,17725,17717,11159,285,141,84,18798,22955,-4168,-11237,2714,-16360,4045,0,0,0,1709861950.1982749,1,18807,18805,18824,18827,18843,18857,18849,18842,19582,95,24,24,10632,10315,7936,27231,-4667,-14555,7226,0,0,0,1709861950.1982749,2,12245,12224,12194,12173,12182,12199,12197,12212,32090,109,52,19,20935,-18886,-9834,11503,-504,16931,-2566,0,0,0,1709861950.1982749,3,0,0,0,0,0,0,0,0,0,0,0,0,0,0,0,0,Attribute not found,Attribute not found,Attribute not found,0,0,0,1709861950.1982749
1,31492,30556,30552,30044,31020,-148,-266,16731,-87,0,-3,1709861950.2895753,0,18001,17999,18005,17989,18005,17986,17952,17940,12805,101,74,23,18833,22995,-4027,-11147,1897,-15798,3520,0,0,0,1709861950.3039043,1,18472,18483,18510,18556,18532,18510,18479,18447,16917,179,18,45,10617,10377,8014,27191,-4358,-14355,6880,0,0,0,1709861950.3039043,2,12247,12239,12210,12214,12211,12215,12183,12156,32139,85,106,67,20872,-18907,-9880,11542,-258,16176,-1489,0,0,0,1709861950.3039043,3,0,0,0,0,0,0,0,0,0,0,0,0,0,0,0,0,Attribute not found,Attribute not found,Attribute not found,0,0,0,1709861950.3039043
1,31544,30564,30568,30072,30884,-148,-266,16731,-87,0,-3,1709861950.391575,0,18130,18128,18116,18144,18178,18209,18198,18166,14197,178,27,11,18749,23029,-4129,-11181,1499,-15656,3965,0,0,0,1709861950.4058776,1,17606,17585,17584,17617,17577,17572,17646,17681,9796,128,148,36,10458,10260,8148,27257,-5336,-14007,6647,0,0,0,1709861950.4058776,2,12071,12058,12057,12027,12029,12037,12080,12083,30906,107,39,12,20931,-18892,-9870,11468,-86,16099,-1381,0,0,0,1709861950.4058776,3,0,0,0,0,0,0,0,0,0,0,0,0,0,0,0,0,Attribute not found,Attribute not found,Attribute not found,0,0,0,1709861950.4058776
1,31492,30648,30544,29956,30196,-148,-266,16731,-87,0,-3,1709861950.4927135,0,18325,18331,18308,18311,18376,18408,18424,18447,15858,266,36,98,18688,23011,-4216,-11288,1134,-15356,3217,0,0,0,1709861950.5059178,1,17219,17239,17245,17256,17256,17234,17236,17215,6828,75,6,26,10338,10084,8306,27320,-4890,-14220,6197,0,0,0,1709861950.5059178,2,12105,12113,12096,12044,12013,11996,11997,12020,30847,253,51,26,20933,-18932,-9846,11418,-1764,16060,-888,0,0,0,1709861950.5059178,3,0,0,0,0,0,0,0,0,0,0,0,0,0,0,0,0,Attribute not found,Attribute not found,Attribute not found,0,0,0,1709861950.5059178
1,31512,30596,30648,29856,29696,-148,-266,16731,-87,0,-3,1709861950.6011906,0,18391,18386,18409,18413,18406,18402,18366,18339,16040,115,42,48,18712,22955,-4186,-11372,1222,-16203,3919,0,0,0,1709861950.6160347,1,17796,17796,17799,17829,17820,17809,17777,17754,11308,108,45,44,10333,10024,8445,27302,-5004,-14842,6445,0,0,0,1709861950.6160347,2,12175,12183,12190,12200,12207,12195,12184,12191,31989,47,15,18,20935,-18921,-9802,11471,-1765,16529,-414,0,0,0,1709861950.6160347,3,0,0,0,0,0,0,0,0,0,0,0,0,0,0,0,0,Attribute not found,Attribute not found,Attribute not found,0,0,0,1709861950.6160347
1,31476,30556,30532,30036,30940,-148,-266,16731,-87,0,-3,1709861950.7106364,0,18037,18042,18029,18009,17987,17984,17966,17947,12929,155,75,57,18728,22946,-4105,-11394,1582,-16118,3826,0,0,0,1709861950.7247734,1,18467,18471,18491,18495,18500,18490,18486,18503,16831,43,38,34,10345,10076,8532,27251,-4751,-14791,6510,0,0,0,1709861950.7247734,2,12152,12134,12141,12169,12191,12191,12179,12175,31796,111,29,7,20932,-18883,-9811,11531,-1473,16326,-791,0,0,0,1709861950.7247734,3,0,0,0,0,0,0,0,0,0,0,0,0,0,0,0,0,Attribute not found,Attribute not found,Attribute not found,0,0,0,1709861950.7247734
1,31524,30592,30572,30084,31008,-148,-266,16731,-87,0,-3,1709861950.8216932,0,17358,17381,17382,17390,17394,17365,17339,17293,7830,154,70,42,18681,22940,-4144,-11469,1853,-15576,3780,0,0,0,1709861950.8349605,1,18550,18544,18484,18458,18482,18470,18498,18554,16968,190,50,52,10268,10177,8575,27229,-4301,-14161,6668,0,0,0,1709861950.8349605,2,12081,12090,12070,12073,12071,12069,12063,12049,31030,39,41,27,20991,-18825,-9824,11508,-1569,15953,-1112,0,0,0,1709861950.8349605,3,0,0,0,0,0,0,0,0,0,0,0,0,0,0,0,0,Attribute not found,Attribute not found,Attribute not found,0,0,0,1709861950.8349605
1,31520,30540,30500,29968,30620,-148,-266,16731,-87,0,-3,1709861950.9307566,0,17025,17028,17058,17063,17051,16986,16906,16904,4949,313,121,57,18651,22907,-4251,-11546,1685,-15785,4108,0,0,0,1709861950.944122,1,17957,18022,18055,18039,18020,17986,17935,17901,12843,278,69,9,10173,10015,8690,27288,-4681,-14799,6140,0,0,0,1709861950.944122,2,12026,12006,11975,11984,11990,12013,12019,12007,30483,80,35,33,20964,-18884,-9797,11484,-2259,15812,-214,0,0,0,1709861950.944122,3,0,0,0,0,0,0,0,0,0,0,0,0,0,0,0,0,Attribute not found,Attribute not found,Attribute not found,0,0,0,1709861950.944122
1,31540,30536,30512,29900,29984,-148,-266,16731,-87,0,-3,1709861951.0328436,0,17665,17643,17605,17609,17638,17694,17752,17779,10313,322,74,57,18686,22854,-4214,-11606,883,-15581,3418,0,0,0,1709861951.0496385,1,17617,17647,17625,17595,17543,17521,17523,17556,9555,257,20,19,10154,9814,8885,27305,-4136,-14577,7094,0,0,0,1709861951.0496385,2,12181,12164,12135,12136,12170,12208,12208,12210,31876,159,27,14,20942,-18872,-9745,11587,-2426,16326,-207,0,0,0,1709861951.0496385,3,0,0,0,0,0,0,0,0,0,0,0,0,0,0,0,0,Attribute not found,Attribute not found,Attribute not found,0,0,0,1709861951.0496385
1,31532,30572,30580,30060,31012,-148,-266,16731,-87,0,-3,1709861951.1405876,0,18506,18474,18459,18459,18476,18503,18538,18540,16883,170,26,6,18721,22874,-4108,-11548,2207,-16427,3571,0,0,0,1709861951.1547291,1,17710,17790,17829,17830,17768,17708,17670,17635,10868,380,39,42,10148,9832,8911,27293,-4800,-14745,6547,0,0,0,1709861951.1547291,2,12326,12300,12278,12282,12277,12295,12311,12312,32845,89,14,28,20906,-18816,-9879,11630,-668,16380,-1155,0,0,0,1709861951.1547291,3,0,0,0,0,0,0,0,0,0,0,0,0,0,0,0,0,Attribute not found,Attribute not found,Attribute not found,0,0,0,1709861951.1547291
1,31552,30536,30628,28888,31048,-148,-266,16731,-87,0,-3,1709861951.2416794,0,18741,18688,18637,18595,18586,18584,18535,18464,17758,300,263,185,18665,22959,-4275,-11409,1457,-15268,3569,0,0,0,1709861951.2604766,1,17932,17941,17790,17660,17518,17472,17552,17610,10403,933,179,174,9981,9788,8848,27390,-4545,-13602,6421,0,0,0,1709861951.2604766,2,12217,12238,12189,12184,12173,12163,12196,12214,32037,120,5,49,20898,-18806,-10037,11525,-599,15254,-998,0,0,0,1709861951.2604766,3,0,0,0,0,0,0,0,0,0,0,0,0,0,0,0,0,Attribute not found,Attribute not found,Attribute not found,0,0,0,1709861951.2604766
1,31548,30576,30752,25472,31036,-148,-266,16731,-87,0,-3,1709861951.350604,0,18270,18248,18258,18285,18317,18309,18301,18286,15202,124,31,4,18579,22987,-4330,-11472,1123,-15837,4536,0,0,0,1709861951.3639112,1,18249,18283,18283,18280,18256,18254,18228,18162,14923,173,95,74,9854,9664,8984,27436,-5678,-14639,6221,0,0,0,1709861951.3639112,2,12149,12147,12156,12156,12147,12137,12108,12131,31594,73,32,26,20961,-18738,-10037,11520,-1618,16144,-408,0,0,0,1709861951.3639112,3,0,0,0,0,0,0,0,0,0,0,0,0,0,0,0,0,Attribute not found,Attribute not found,Attribute not found,0,0,0,1709861951.3639112
1,31600,30528,30600,29724,31036,-148,-266,16731,-87,0,-3,1709861951.4507275,0,18051,18075,18095,18093,18085,18075,18059,18042,13503,100,23,2,18701,22909,-4142,-11499,1544,-17222,3476,0,0,0,1709861951.4653988,1,18755,18752,18774,18841,18897,18891,18878,18863,19579,312,61,60,10025,9734,9131,27301,-4637,-15537,6501,0,0,0,1709861951.4653988,2,12252,12271,12251,12248,12258,12237,12239,12213,32433,61,51,37,20896,-18735,-9959,11710,-1060,17832,-874,0,0,0,1709861951.4653988,3,0,0,0,0,0,0,0,0,0,0,0,0,0,0,0,0,Attribute not found,Attribute not found,Attribute not found,0,0,0,1709861951.4653988
1,31472,30564,30540,30072,30980,-148,-266,16731,-87,0,-3,1709861951.5583227,0,17439,17381,17370,17396,17432,17432,17459,17458,8295,169,58,9,18728,22959,-4121,-11362,2214,-15336,3387,0,0,0,1709861951.5715032,1,18330,18314,18289,18274,18244,18224,18222,18264,15089,198,63,29,10054,9848,9010,27289,-3665,-13998,6593,0,0,0,1709861951.5715032,2,12112,12108,12077,12066,12087,12134,12146,12121,31315,134,60,12,20868,-18897,-9875,11570,-833,15133,-1062,0,0,0,1709861951.5715032,3,0,0,0,0,0,0,0,0,0,0,0,0,0,0,0,0,Attribute not found,Attribute not found,Attribute not found,0,0,0,1709861951.5715032
1,31520,30664,27604,30220,30948,-148,-266,16731,-87,0,-3,1709861951.6558125,0,17168,17184,17240,17300,17319,17232,17166,17148,6685,327,87,9,18607,23046,-4253,-11336,2035,-15351,3599,0,0,0,1709861951.6697614,1,17409,17414,17478,17558,17569,17572,17598,17649,9175,361,241,125,10005,9961,8924,27294,-5423,-13872,6579,0,0,0,1709861951.6697614,2,12046,12042,12008,11989,11994,12003,11988,11979,30513,90,88,34,20953,-18967,-9668,11475,295,16247,-1570,0,0,0,1709861951.6697614,3,0,0,0,0,0,0,0,0,0,0,0,0,0,0,0,0,Attribute not found,Attribute not found,Attribute not found,0,0,0,1709861951.6697614
1,31544,30764,27540,30228,31016,-148,-266,16731,-87,0,-3,1709861951.7556896,0,17634,17640,17633,17621,17619,17611,17610,17626,9922,55,10,10,18557,22991,-4300,-11511,3144,-16263,4172,0,0,0,1709861951.7729058,1,17550,17561,17566,17571,17578,17570,17578,17567,9469,40,17,20,9934,9936,9082,27277,-3858,-14583,7761,0,0,0,1709861951.7729058,2,12102,12111,12110,12114,12099,12082,12064,12074,31220,94,27,11,20971,-18962,-9618,11493,-567,17466,-1988,0,0,0,1709861951.7729058,3,0,0,0,0,0,0,0,0,0,0,0,0,0,0,0,0,Attribute not found,Attribute not found,Attribute not found,0,0,0,1709861951.7729058
1,31504,30528,30580,30148,30988,-148,-266,16731,-87,0,-3,1709861951.8661346,0,18412,18418,18421,18405,18410,18402,18393,18387,16176,52,29,5,18660,22893,-4276,-11548,1723,-16316,3495,0,0,0,1709861951.8811162,1,17921,17897,17910,17933,17957,17963,18000,18067,12576,231,143,98,10019,9894,9140,27242,-4198,-15001,6555,0,0,0,1709861951.8811162,2,12389,12367,12358,12383,12371,12317,12241,12191,33081,299,194,130,20869,-18943,-9719,11624,376,16978,-1618,0,0,0,1709861951.8811162,3,0,0,0,0,0,0,0,0,0,0,0,0,0,0,0,0,Attribute not found,Attribute not found,Attribute not found,0,0,0,1709861951.8811162
1,31528,30524,30552,30100,30992,-148,-266,16731,-87,0,-3,1709861951.9675033,0,18562,18590,18553,18513,18570,18613,18557,18534,17420,36,157,27,18600,22744,-4702,-11771,2068,-15696,3719,0,0,0,1709861951.9816291,1,18343,18306,18191,18196,18230,18249,18343,18424,15210,416,75,93,9954,9875,9023,27311,-4247,-14418,6483,0,0,0,1709861951.9816291,2,12877,12943,12866,12662,12280,12162,12143,12269,34666,1780,228,339,21026,-18945,-9561,11468,-1802,15916,320,0,0,0,1709861951.9816291,3,0,0,0,0,0,0,0,0,0,0,0,0,0,0,0,0,Attribute not found,Attribute not found,Attribute not found,0,0,0,1709861951.9816291
1,31732,26308,30744,30128,31068,-148,-266,16731,-87,0,-3,1709861952.0695972,0,17941,17878,17809,17763,17808,17865,17928,17928,11848,343,53,13,18462,22780,-4814,-11875,1416,-15718,3850,0,0,0,1709861952.0837283,1,17972,18035,18142,18187,18257,18330,18319,18266,14436,621,248,158,9733,9667,9151,27423,-4484,-14188,5997,0,0,0,1709861952.0837283,2,11898,11935,12194,12392,12430,12401,12539,12493,32746,1086,682,279,21154,-19044,-9352,11238,-617,16014,-652,0,0,0,1709861952.0837283,3,0,0,0,0,0,0,0,0,0,0,0,0,0,0,0,0,Attribute not found,Attribute not found,Attribute not found,0,0,0,1709861952.0837283
1,31660,26900,30724,30120,31024,-148,-266,16731,-87,0,-3,1709861952.1696517,0,17600,17663,17693,17651,17558,17470,17443,17417,9423,552,68,87,18388,22796,-4791,-11968,2318,-16124,4180,0,0,0,1709861952.184043,1,17903,17890,17890,17941,18015,18014,17955,17857,12393,275,128,50,9628,9667,9305,27408,-4174,-15016,6805,0,0,0,1709861952.184043,2,11695,11711,12083,12339,12375,12331,12320,12394,31712,1294,767,369,21232,-18943,-9344,11270,-1228,17242,-1574,0,0,0,1709861952.184043,3,0,0,0,0,0,0,0,0,0,0,0,0,0,0,0,0,Attribute not found,Attribute not found,Attribute not found,0,0,0,1709861952.184043
1,31508,30552,30516,30156,31016,-148,-266,16731,-87,0,-3,1709861952.2695587,0,17576,17584,17584,17581,17552,17473,17452,17448,9178,304,96,56,18563,22780,-4595,-11803,2608,-16562,4467,0,0,0,1709861952.2826357,1,17864,17832,17813,17779,17797,17801,17783,17743,11340,100,128,72,9699,9765,9306,27348,-3503,-14639,6382,0,0,0,1709861952.2826357,2,12048,12058,12077,12098,12096,12096,12080,12085,31102,86,31,18,21059,-18837,-9748,11427,-2383,16676,-171,0,0,0,1709861952.2826357,3,0,0,0,0,0,0,0,0,0,0,0,0,0,0,0,0,Attribute not found,Attribute not found,Attribute not found,0,0,0,1709861952.2826357
1,31236,30556,30584,30104,31060,-148,-266,16731,-87,0,-3,1709861952.365381,0,17678,17738,17742,17697,17740,17808,17932,18073,11336,528,340,305,18582,22784,-4722,-11716,1545,-15292,2997,0,0,0,1709861952.3784885,1,17364,17391,17431,17579,17702,17746,17719,17704,9564,802,168,182,9648,9356,9542,27427,-2635,-14834,5311,0,0,0,1709861952.3784885,2,12270,12267,12180,12198,12235,12196,12158,12141,32109,121,208,72,20670,-18933,-10146,11631,-3113,15186,1079,0,0,0,1709861952.3784885,3,0,0,0,0,0,0,0,0,0,0,0,0,0,0,0,0,Attribute not found,Attribute not found,Attribute not found,0,0,0,1709861952.3784885
1,28580,29688,30628,30172,31012,-148,-266,16731,-87,0,-3,1709861952.4638793,0,17920,17921,17979,18034,18077,18144,18267,18383,13653,695,431,272,18477,22772,-4964,-11804,1292,-15813,3708,0,0,0,1709861952.4759557,1,17983,17978,17911,17860,17851,17866,17847,17786,12010,251,212,124,9569,9435,9517,27437,-3697,-15058,5860,0,0,0,1709861952.4759557,2,12056,12185,12246,12256,12243,12262,12275,12287,32274,243,241,161,20668,-18994,-10081,11592,-1892,15555,701,0,0,0,1709861952.4759557,3,0,0,0,0,0,0,0,0,0,0,0,0,0,0,0,0,Attribute not found,Attribute not found,Attribute not found,0,0,0,1709861952.4759557
1,29448,30516,30564,30192,31004,-148,-266,16731,-87,0,-3,1709861952.5582857,0,18706,18721,18745,18725,18674,18649,18645,18666,18459,196,23,23,18355,22888,-4914,-11791,1731,-16505,4544,0,0,0,1709861952.570625,1,18482,18463,18440,18476,18514,18520,18486,18476,16785,112,76,10,9439,9330,9629,27479,-4406,-15477,7204,0,0,0,1709861952.570625,2,12162,12268,12306,12300,12291,12284,12266,12230,32570,205,121,68,20743,-18935,-10062,11571,-636,17001,-2594,0,0,0,1709861952.570625,3,0,0,0,0,0,0,0,0,0,0,0,0,0,0,0,0,Attribute not found,Attribute not found,Attribute not found,0,0,0,1709861952.570625
1,31476,30544,30552,30152,31060,-148,-266,16731,-87,0,-3,1709861952.6557739,0,18712,18659,18657,18697,18778,18755,18742,18739,18667,210,93,30,18476,22823,-4796,-11776,1885,-15615,3927,0,0,0,1709861952.6675508,1,18805,18818,18841,18809,18777,18820,18928,18933,19659,209,213,58,9478,9358,9642,27451,-3415,-14335,6123,0,0,0,1709861952.6675508,2,12192,11611,11375,11436,11857,11975,12396,12574,29879,2262,507,216,20799,-18971,-9918,11535,-1182,15736,-1901,0,0,0,1709861952.6675508,3,0,0,0,0,0,0,0,0,0,0,0,0,0,0,0,0,Attribute not found,Attribute not found,Attribute not found,0,0,0,1709861952.6675508
1,31508,30044,30604,30112,30976,-148,-266,16731,-87,0,-3,1709861952.752634,0,18390,18346,18100,17852,17970,18124,18141,18029,13880,702,600,155,18445,22627,-5058,-12090,441,-15012,4337,0,0,0,1709861952.7658834,1,17621,17663,17998,18342,18472,18583,18822,18892,15321,2170,1226,627,9542,9664,9483,27379,-4975,-15033,4433,0,0,0,1709861952.7658834,2,12186,12291,12051,12236,12328,12132,11805,11747,31240,797,791,231,21111,-19141,-9298,11200,-3393,14722,1861,0,0,0,1709861952.7658834,3,0,0,0,0,0,0,0,0,0,0,0,0,0,0,0,0,Attribute not found,Attribute not found,Attribute not found,0,0,0,1709861952.7658834
1,31772,27052,30724,30148,31056,-148,-266,16731,-87,0,-3,1709861952.855881,0,17224,17255,17237,17207,17218,17240,17205,17148,6662,87,140,42,18381,22575,-5048,-12287,1624,-16449,3662,0,0,0,1709861952.8699331,1,17527,17538,17512,17431,17364,17372,17391,17458,8521,371,24,34,9388,9406,9738,27432,-3157,-15200,6217,0,0,0,1709861952.8699331,2,12086,12127,12088,12059,12080,12097,12101,12082,31183,44,86,36,21141,-19199,-9130,11183,-1723,16095,-298,0,0,0,1709861952.8699331,3,0,0,0,0,0,0,0,0,0,0,0,0,0,0,0,0,Attribute not found,Attribute not found,Attribute not found,0,0,0,1709861952.8699331
1,31644,27892,30732,30116,30996,-148,-266,16731,-87,0,-3,1709861952.9557939,0,17231,17216,17195,17187,17172,17153,17124,17137,6343,165,95,50,18374,22634,-4864,-12262,1365,-16252,3904,0,0,0,1709861952.9684963,1,17565,17562,17550,17540,17528,17524,17572,17570,9339,86,37,29,9359,9357,9939,27386,-4495,-14737,6322,0,0,0,1709861952.9684963,2,12073,12130,12154,12170,12189,12214,12236,12246,31876,229,146,114,21149,-18983,-9281,11409,-2814,16534,182,0,0,0,1709861952.9684963,3,0,0,0,0,0,0,0,0,0,0,0,0,0,0,0,0,Attribute not found,Attribute not found,Attribute not found,0,0,0,1709861952.9684963
1,31516,30128,30552,30112,30964,-148,-266,16731,-87,0,-3,1709861953.052974,0,17932,17885,17872,17882,17905,17896,17904,17916,12120,77,63,10,18439,22668,-4761,-12141,3366,-15108,3525,0,0,0,1709861953.0660753,1,18194,18194,18189,18232,18280,18340,18406,18372,15135,428,139,83,9384,9429,9933,27355,-2660,-14158,5679,0,0,0,1709861953.0660753,2,12443,12427,12420,12404,12383,12368,12389,12433,33731,132,45,10,21074,-18982,-9427,11429,-5253,15831,20,0,0,0,1709861953.0660753,3,0,0,0,0,0,0,0,0,0,0,0,0,0,0,0,0,Attribute not found,Attribute not found,Attribute not found,0,0,0,1709861953.0660753
1,31500,30596,30152,30052,31000,-148,-266,16731,-87,0,-3,1709861953.155914,0,18364,18321,18300,18347,18353,18353,18351,18370,15687,90,78,21,18424,22825,-4604,-11929,2772,-15615,3691,0,0,0,1709861953.1686692,1,18502,18538,18571,18564,18541,18568,18577,18598,17387,62,119,57,9380,9525,9889,27340,-3554,-14385,6353,0,0,0,1709861953.1686692,2,12278,12291,12327,12343,12341,12304,12289,12288,32925,130,36,17,21088,-18977,-9377,11454,-1458,16046,-1632,0,0,0,1709861953.1686692,3,0,0,0,0,0,0,0,0,0,0,0,0,0,0,0,0,Attribute not found,Attribute not found,Attribute not found,0,0,0,1709861953.1686692
1,31532,30720,26684,30280,31048,-148,-266,16731,-87,0,-3,1709861953.251541,0,18298,18267,18282,18327,18347,18337,18297,18229,15312,167,81,77,18313,22787,-4658,-12151,948,-15921,3723,0,0,0,1709861953.2642238,1,18353,18283,18200,18146,18140,18171,18273,18326,14820,436,26,25,9269,9550,10090,27295,-4584,-15031,6490,0,0,0,1709861953.2642238,2,12063,12065,12037,11986,11959,11944,11977,12021,30516,246,8,6,21169,-19009,-9161,11426,-486,15883,-1502,0,0,0,1709861953.2642238,3,0,0,0,0,0,0,0,0,0,0,0,0,0,0,0,0,Attribute not found,Attribute not found,Attribute not found,0,0,0,1709861953.2642238
1,31496,30744,27084,30220,31024,-148,-266,16731,-87,0,-3,1709861953.3540416,0,18117,18126,18168,18189,18194,18150,18123,18104,14099,177,26,1,18295,22761,-4596,-12249,1099,-16491,3981,0,0,0,1709861953.3661118,1,17998,18025,18011,18000,18015,18027,18024,17993,13021,25,62,19,9306,9649,10170,27218,-4204,-14815,6425,0,0,0,1709861953.3661118,2,12012,12030,12025,12036,12023,12016,11997,12003,30606,65,14,5,21170,-18979,-9153,11480,-1116,16373,-1290,0,0,0,1709861953.3661118,3,0,0,0,0,0,0,0,0,0,0,0,0,0,0,0,0,Attribute not found,Attribute not found,Attribute not found,0,0,0,1709861953.3661118
1,31480,30580,30480,30024,30996,-148,-266,16731,-87,0,-3,1709861953.4541564,0,17640,17628,17622,17630,17639,17637,17657,17617,9998,35,18,41,18352,22746,-4587,-12196,1359,-16287,3787,0,0,0,1709861953.4684749,1,17432,17423,17414,17402,17397,17421,17449,17452,8318,99,35,2,9220,9461,10247,27284,-4396,-14922,6996,0,0,0,1709861953.4684749,2,11907,11890,11892,11905,11929,11932,11944,11945,29808,112,28,21,20990,-18974,-9490,11544,-431,15771,-933,0,0,0,1709861953.4684749,3,0,0,0,0,0,0,0,0,0,0,0,0,0,0,0,0,Attribute not found,Attribute not found,Attribute not found,0,0,0,1709861953.4684749
1,31564,30572,30600,30060,31004,-148,-266,16731,-87,0,-3,1709861953.555184,0,17420,17439,17489,17539,17543,17532,17526,17501,8917,228,86,30,18359,22742,-4675,-12159,2568,-15787,3817,0,0,0,1709861953.5665119,1,17616,17587,17582,17570,17588,17581,17585,17617,9654,72,41,27,9136,9411,10217,27341,-4035,-14194,6873,0,0,0,1709861953.5665119,2,12106,12096,12084,12055,12047,12046,12069,12093,31060,123,6,7,20959,-18986,-9600,11491,-163,16093,-2117,0,0,0,1709861953.5665119,3,0,0,0,0,0,0,0,0,0,0,0,0,0,0,0,0,Attribute not found,Attribute not found,Attribute not found,0,0,0,1709861953.5665119
1,31496,30520,30648,28080,30960,-148,-266,16731,-87,0,-3,1709861953.6536283,0,17459,17510,17602,17673,17713,17720,17696,17699,10000,464,189,143,18340,22687,-4817,-12234,1866,-15852,2979,0,0,0,1709861953.667352,1,18188,18175,18124,18101,18129,18155,18101,18047,13948,83,203,88,8993,9183,10271,27445,-4289,-14073,6242,0,0,0,1709861953.667352,2,12264,12250,12197,12136,12124,12142,12172,12193,31941,263,65,25,20983,-18910,-9704,11484,-1077,16016,-723,0,0,0,1709861953.667352,3,0,0,0,0,0,0,0,0,0,0,0,0,0,0,0,0,Attribute not found,Attribute not found,Attribute not found,0,0,0,1709861953.667352
1,31540,30636,30716,26116,30988,-148,-266,16731,-87,0,-3,1709861953.7416322,0,18018,18039,18080,18128,18145,18128,18124,18100,13690,227,73,44,18285,22688,-4860,-12298,1461,-16445,4293,0,0,0,1709861953.7538912,1,18723,18718,18724,18737,18774,18801,18808,18804,19017,200,41,45,8811,9014,10455,27491,-4881,-15212,6471,0,0,0,1709861953.7538912,2,12308,12319,12322,12317,12308,12300,12283,12267,32887,90,36,24,21029,-18870,-9715,11459,-2061,17135,-194,0,0,0,1709861953.7538912,3,0,0,0,0,0,0,0,0,0,0,0,0,0,0,0,0,Attribute not found,Attribute not found,Attribute not found,0,0,0,1709861953.7538912
1,31528,30560,30580,29248,31020,-148,-266,16731,-87,0,-3,1709861953.8314028,0,18573,18554,18569,18603,18611,18614,18587,18575,17614,108,29,24,18322,22679,-4736,-12307,2180,-16445,3845,0,0,0,1709861953.8459544,1,18916,18897,18834,18774,18801,18843,18820,18805,19618,177,172,54,8930,9127,10514,27392,-4482,-14931,6383,0,0,0,1709861953.8459544,2,12451,12454,12449,12437,12416,12394,12366,12384,33815,167,58,30,20982,-18897,-9678,11530,-1823,16943,-882,0,0,0,1709861953.8459544,3,0,0,0,0,0,0,0,0,0,0,0,0,0,0,0,0,Attribute not found,Attribute not found,Attribute not found,0,0,0,1709861953.8459544
1,31496,30580,30564,30008,31008,-148,-266,16731,-87,0,-3,1709861953.9325418,0,18456,18450,18444,18463,18469,18422,18398,18393,16423,122,84,28,18341,22694,-4657,-12282,1821,-16203,3019,0,0,0,1709861953.9442093,1,18182,18219,18210,18184,18152,18147,18125,18072,14219,215,110,73,8878,9039,10619,27398,-3880,-14524,6596,0,0,0,1709861953.9442093,2,12106,12096,12108,12098,12080,12064,12061,12071,31148,93,19,23,20939,-18936,-9673,11547,-550,16325,-1073,0,0,0,1709861953.9442093,3,0,0,0,0,0,0,0,0,0,0,0,0,0,0,0,0,Attribute not found,Attribute not found,Attribute not found,0,0,0,1709861953.9442093
1,31512,30604,30592,30004,30864,-148,-266,16731,-87,0,-3,1709861954.0273106,0,17925,17922,17944,17948,17919,17843,17757,17757,11943,384,155,85,18239,22737,-4831,-12288,1803,-15468,3709,0,0,0,1709861954.038495,1,17320,17307,17263,17213,17203,17281,17371,17415,7301,362,117,47,8698,8957,10660,27467,-4133,-14155,6358,0,0,0,1709861954.038495,2,11923,11919,11940,11948,11917,11911,11905,11923,29850,58,41,21,21001,-18944,-9680,11416,-1798,16297,-925,0,0,0,1709861954.038495,3,0,0,0,0,0,0,0,0,0,0,0,0,0,0,0,0,Attribute not found,Attribute not found,Attribute not found,0,0,0,1709861954.038495
1,31504,30560,30536,29876,29232,-148,-266,16731,-87,0,-3,1709861954.1184328,0,17605,17592,17571,17568,17592,17603,17568,17530,9557,30,113,50,18140,22702,-4915,-12463,2745,-15983,3502,0,0,0,1709861954.1306431,1,17312,17322,17318,17298,17285,17282,17277,17247,7269,107,59,41,8511,8794,10852,27503,-3995,-14159,6883,0,0,0,1709861954.1306431,2,11992,11989,11995,12006,11998,11985,11973,12007,30408,24,44,22,21065,-18935,-9613,11369,-1064,17197,-1632,0,0,0,1709861954.1306431,3,0,0,0,0,0,0,0,0,0,0,0,0,0,0,0,0,Attribute not found,Attribute not found,Attribute not found,0,0,0,1709861954.1306431
1,31556,30588,30576,29848,29764,-148,-266,16731,-87,0,-3,1709861954.2131155,0,17769,17774,17806,17820,17844,17834,17823,17820,11418,131,35,41,18184,22638,-4852,-12540,2264,-16186,3716,0,0,0,1709861954.2242603,1,18109,18120,18127,18126,18137,18146,18168,18188,14049,103,68,57,8541,8723,10994,27460,-4160,-14392,6806,0,0,0,1709861954.2242603,2,12272,12270,12251,12242,12222,12219,12224,12247,32411,107,18,11,21061,-18934,-9535,11444,-1709,16755,-209,0,0,0,1709861954.2242603,3,0,0,0,0,0,0,0,0,0,0,0,0,0,0,0,0,Attribute not found,Attribute not found,Attribute not found,0,0,0,1709861954.2242603
1,31548,30552,30588,30060,30980,-148,-266,16731,-87,0,-3,1709861954.3083572,0,18165,18147,18144,18151,18143,18153,18128,18156,14115,22,36,32,18219,22655,-4699,-12518,2453,-15908,3248,0,0,0,1709861954.3226936,1,18802,18788,18778,18781,18793,18817,18835,18860,19382,140,40,32,8580,8711,11099,27409,-3726,-14570,6740,0,0,0,1709861954.3226936,2,12298,12316,12310,12339,12330,12323,12326,12336,33041,43,36,28,21031,-18804,-9622,11638,-654,16458,-1315,0,0,0,1709861954.3226936,3,0,0,0,0,0,0,0,0,0,0,0,0,0,0,0,0,Attribute not found,Attribute not found,Attribute not found,0,0,0,1709861954.3226936
1,31576,30604,30552,29916,30996,-148,-266,16731,-87,0,-3,1709861954.4051082,0,18271,18259,18258,18290,18309,18269,18287,18326,15197,64,94,56,18177,22616,-4900,-12571,1584,-15704,3834,0,0,0,1709861954.4183426,1,18638,18676,18704,18727,18707,18672,18644,18600,18296,218,21,37,8478,8817,11047,27428,-4285,-14581,6119,0,0,0,1709861954.4183426,2,12242,12216,12183,12178,12157,12152,12143,12157,31892,152,80,58,21063,-18779,-9726,11534,-1899,15679,-841,0,0,0,1709861954.4183426,3,0,0,0,0,0,0,0,0,0,0,0,0,0,0,0,0,Attribute not found,Attribute not found,Attribute not found,0,0,0,1709861954.4183426
1,31484,30608,30616,28152,30940,-148,-266,16731,-87,0,-3,1709861954.5006902,0,18106,18068,18071,18081,18114,18145,18128,18121,13762,143,23,31,18107,22624,-4968,-12631,1558,-15553,3642,0,0,0,1709861954.5138342,1,17926,18030,18064,18006,17936,17933,17940,17886,12649,278,158,30,8370,8791,11087,27454,-3775,-14793,6143,0,0,0,1709861954.5138342,2,12055,12150,12131,12057,11976,11977,11993,12019,30821,336,106,19,21133,-18767,-9673,11472,-1672,15708,-534,0,0,0,1709861954.5138342,3,0,0,0,0,0,0,0,0,0,0,0,0,0,0,0,0,Attribute not found,Attribute not found,Attribute not found,0,0,0,1709861954.5138342
1,31472,30560,30748,25452,30952,-148,-266,16731,-87,0,-3,1709861954.5884626,0,17943,17949,17968,17982,17968,17922,17910,17915,12485,135,42,9,18089,22627,-4957,-12656,1287,-15911,4249,0,0,0,1709861954.601725,1,17612,17648,17634,17559,17508,17493,17503,17520,9405,326,64,22,8275,8646,11203,27481,-5178,-14756,6327,0,0,0,1709861954.601725,2,12089,12091,12072,12067,12054,12064,12074,12075,31050,60,13,18,21127,-18760,-9657,11506,-1415,16312,-790,0,0,0,1709861954.601725,3,0,0,0,0,0,0,0,0,0,0,0,0,0,0,0,0,Attribute not found,Attribute not found,Attribute not found,0,0,0,1709861954.601725
1,31556,30548,30608,29116,30984,-148,-266,16731,-87,0,-3,1709861954.6845343,0,17836,17866,17886,17843,17830,17839,17867,17889,11784,57,91,55,18114,22626,-4843,-12665,1359,-16264,3343,0,0,0,1709861954.697441,1,17498,17518,17555,17589,17572,17584,17596,17599,9439,147,118,36,8296,8573,11352,27436,-4536,-14769,6918,0,0,0,1709861954.697441,2,12169,12167,12156,12156,12166,12171,12156,12157,31762,3,33,6,21050,-18748,-9685,11643,-293,16266,-1364,0,0,0,1709861954.697441,3,0,0,0,0,0,0,0,0,0,0,0,0,0,0,0,0,Attribute not found,Attribute not found,Attribute not found,0,0,0,1709861954.697441
1,31524,30500,30528,30092,31008,-148,-266,16731,-87,0,-3,1709861954.7729988,0,17843,17818,17784,17791,17808,17777,17793,17796,11338,69,74,34,18142,22672,-4758,-12576,1956,-16008,3629,0,0,0,1709861954.7875438,1,17946,17952,17943,17972,18015,18032,18017,18001,12806,184,11,33,8390,8776,11274,27376,-3493,-14753,6641,0,0,0,1709861954.7875438,2,12125,12110,12111,12142,12195,12209,12207,12226,31789,239,49,68,21045,-18847,-9584,11575,-1564,16098,-751,0,0,0,1709861954.7875438,3,0,0,0,0,0,0,0,0,0,0,0,0,0,0,0,0,Attribute not found,Attribute not found,Attribute not found,0,0,0,1709861954.7875438
1,31552,30572,30216,30132,31032,-148,-266,16731,-87,0,-3,1709861954.8737433,0,17864,17925,17956,17930,17907,17861,17841,17845,12057,227,28,29,18132,22706,-4776,-12522,3114,-15680,3478,0,0,0,1709861954.8859775,1,18426,18458,18540,18626,18698,18693,18630,18488,17487,558,59,22,8572,9040,11115,27298,-3525,-14367,6179,0,0,0,1709861954.8859775,2,12286,12242,12226,12223,12205,12213,12226,12238,32322,112,39,50,21118,-18943,-9304,11514,292,16350,-1448,0,0,0,1709861954.8859775,3,0,0,0,0,0,0,0,0,0,0,0,0,0,0,0,0,Attribute not found,Attribute not found,Attribute not found,0,0,0,1709861954.8859775
1,31484,30676,26824,30232,30948,-148,-266,16731,-87,0,-3,1709861954.9658792,0,17848,17865,17913,17962,17979,17977,18021,18030,12523,285,184,101,18036,22720,-4815,-12619,2275,-15565,2936,0,0,0,1709861954.979179,1,18355,18390,18398,18399,18391,18445,18427,18363,16096,108,107,32,8487,9013,11288,27263,-3827,-14018,6664,0,0,0,1709861954.979179,2,12036,12053,12077,12093,12125,12133,12136,12132,31249,185,65,65,21161,-18952,-9182,11518,137,15800,-1394,0,0,0,1709861954.979179,3,0,0,0,0,0,0,0,0,0,0,0,0,0,0,0,0,Attribute not found,Attribute not found,Attribute not found,0,0,0,1709861954.979179
1,31492,30664,27248,30260,30996,-148,-266,16731,-87,0,-3,1709861955.0527747,0,18147,18131,18162,18168,18190,18203,18220,18202,14351,150,57,23,18000,22647,-4798,-12807,4041,-16803,3305,0,0,0,1709861955.0661416,1,18230,18233,18200,18194,18213,18200,18168,18146,14512,89,119,37,8399,8908,11516,27229,-2591,-14890,9050,0,0,0,1709861955.0661416,2,12033,12004,11986,11970,11981,12012,12034,12041,30525,141,7,10,21178,-18866,-9180,11629,330,17647,-2937,0,0,0,1709861955.0661416,3,0,0,0,0,0,0,0,0,0,0,0,0,0,0,0,0,Attribute not found,Attribute not found,Attribute not found,0,0,0,1709861955.0661416
1,31524,30512,30336,30064,31008,-148,-266,16731,-87,0,-3,1709861955.1527002,0,18399,18395,18382,18421,18465,18508,18481,18398,16377,229,84,46,18066,22631,-4721,-12773,2976,-16613,3906,0,0,0,1709861955.1651173,1,17907,17865,17816,17782,17728,17695,17671,17668,11060,409,184,150,8393,8768,11580,27249,-3902,-15207,7930,0,0,0,1709861955.1651173,2,12227,12246,12249,12254,12250,12266,12244,12257,32456,36,16,23,21093,-18850,-9295,11718,-898,18056,-2844,0,0,0,1709861955.1651173,3,0,0,0,0,0,0,0,0,0,0,0,0,0,0,0,0,Attribute not found,Attribute not found,Attribute not found,0,0,0,1709861955.1651173
1,31468,30476,30576,30096,31000,-148,-266,16731,-87,0,-3,1709861955.2530878,0,18379,18254,18203,18077,17940,17828,17782,17752,13143,1080,419,383,18021,22633,-4828,-12793,3328,-15947,2492,0,0,0,1709861955.2652295,1,17474,17611,17537,17306,17085,16936,16765,16545,6187,1817,741,511,8289,8630,11603,27315,-3347,-13346,8346,0,0,0,1709861955.2652295,2,12590,12731,12762,12827,12792,12557,12340,12282,35345,1039,332,105,21103,-18875,-9243,11701,4105,17576,-2403,0,0,0,1709861955.2652295,3,0,0,0,0,0,0,0,0,0,0,0,0,0,0,0,0,Attribute not found,Attribute not found,Attribute not found,0,0,0,1709861955.2652295
1,31636,27392,30676,30064,30996,-148,-266,16731,-87,0,-3,1709861955.3538356,0,17816,17658,17560,17578,17620,17607,17684,17794,10245,453,219,10,17873,22540,-5152,-13035,885,-16648,3319,0,0,0,1709861955.366047,1,17339,17239,17272,17281,17269,17337,17454,17549,7668,480,280,91,7997,8402,11732,27419,-5094,-14860,6619,0,0,0,1709861955.366047,2,11578,11563,11589,11712,11866,11845,11665,11466,27748,669,298,99,21206,-18990,-8997,11518,2240,17342,-1836,0,0,0,1709861955.366047,3,0,0,0,0,0,0,0,0,0,0,0,0,0,0,0,0,Attribute not found,Attribute not found,Attribute not found,0,0,0,1709861955.366047
1,31644,26776,30744,30116,31032,-148,-266,16731,-87,0,-3,1709861955.4512107,0,17711,17725,17707,17676,17660,17641,17652,17657,10357,160,35,18,17779,22521,-5247,-13158,3211,-16241,3438,0,0,0,1709861955.4640396,1,18064,18015,17991,18000,18041,18088,18123,18161,13411,309,58,51,7889,8402,11809,27416,-3131,-14733,6784,0,0,0,1709861955.4640396,2,12312,12337,12357,12361,12357,12367,12376,12369,33299,75,69,30,21281,-19038,-8883,11390,-1149,16512,-1054,0,0,0,1709861955.4640396,3,0,0,0,0,0,0,0,0,0,0,0,0,0,0,0,0,Attribute not found,Attribute not found,Attribute not found,0,0,0,1709861955.4640396
1,31544,29448,30636,30088,31032,-148,-266,16731,-87,0,-3,1709861955.5434036,0,17753,17784,17809,17838,17865,17870,17879,17882,11608,215,96,85,17831,22557,-5119,-13076,3190,-15866,3680,0,0,0,1709861955.5549524,1,18836,18875,18900,18884,18875,18879,18853,18823,19853,121,63,9,7816,8308,11924,27416,-3157,-14483,7351,0,0,0,1709861955.5549524,2,12306,12281,12289,12269,12245,12223,12223,12244,32544,150,40,38,21209,-18825,-9241,11589,-152,17183,-1959,0,0,0,1709861955.5549524,3,0,0,0,0,0,0,0,0,0,0,0,0,0,0,0,0,Attribute not found,Attribute not found,Attribute not found,0,0,0,1709861955.5549524
1,31580,30596,30616,30104,31012,-148,-266,16731,-87,0,-3,1709861955.6358707,0,18117,18118,18116,18130,18183,18178,18175,18171,14116,152,10,54,17979,22590,-4958,-12878,2190,-15907,3720,0,0,0,1709861955.647242,1,18728,18706,18696,18659,18611,18641,18673,18715,18357,204,40,35,7810,8213,12036,27397,-3588,-14057,7079,0,0,0,1709861955.647242,2,12157,12156,12146,12191,12208,12225,12216,12182,31945,154,8,27,21031,-18720,-9643,11757,-1439,16345,-1469,0,0,0,1709861955.647242,3,0,0,0,0,0,0,0,0,0,0,0,0,0,0,0,0,Attribute not found,Attribute not found,Attribute not found,0,0,0,1709861955.647242
1,30684,30564,30608,30080,31048,-148,-266,16731,-87,0,-3,1709861955.7328055,0,18189,18232,18172,18003,17741,17675,17805,18047,12792,1137,150,23,17923,22574,-5175,-12898,-63,-14821,4218,0,0,0,1709861955.7448542,1,18165,18211,18136,17997,17761,17523,17429,17540,11690,1619,411,261,7631,7949,12201,27453,-5603,-14253,6840,0,0,0,1709861955.7448542,2,11878,11846,11873,11854,11795,11800,11932,12080,29522,332,316,128,20823,-18780,-9875,11838,1054,15819,-1984,0,0,0,1709861955.7448542,3,0,0,0,0,0,0,0,0,0,0,0,0,0,0,0,0,Attribute not found,Attribute not found,Attribute not found,0,0,0,1709861955.7448542
1,28644,29544,30680,30144,31008,-148,-266,16731,-87,0,-3,1709861955.830203,0,18166,18035,17967,18021,18084,18181,18277,18259,13918,599,64,42,17837,22618,-5297,-12890,712,-15966,4094,0,0,0,1709861955.8435864,1,17185,17339,17387,17369,17384,17332,17201,17073,7198,568,229,28,7610,8024,12177,27448,-4934,-14759,6171,0,0,0,1709861955.8435864,2,11879,11862,11829,11847,11871,11867,11811,11809,29239,47,132,38,20763,-18813,-9906,11865,-875,15837,-514,0,0,0,1709861955.8435864,3,0,0,0,0,0,0,0,0,0,0,0,0,0,0,0,0,Attribute not found,Attribute not found,Attribute not found,0,0,0,1709861955.8435864
1,29240,30368,30628,30128,31084,-148,-266,16731,-87,0,-3,1709861955.9254372,0,18105,18150,18239,18258,18226,18100,18018,18051,14075,464,94,40,17827,22634,-5202,-12914,3224,-16545,3461,0,0,0,1709861955.9374506,1,17526,17537,17509,17445,17392,17390,17423,17453,8603,305,32,27,7575,7902,12235,27467,-3562,-14815,7465,0,0,0,1709861955.9374506,2,12043,12111,12142,12091,11953,11798,11718,11733,30052,900,160,131,20818,-18823,-9776,11860,156,16901,-2524,0,0,0,1709861955.9374506,3,0,0,0,0,0,0,0,0,0,0,0,0,0,0,0,0,Attribute not found,Attribute not found,Attribute not found,0,0,0,1709861955.9374506
1,31548,30576,30568,30168,31024,-148,-266,16731,-87,0,-3,1709861956.0195456,0,18151,18177,18213,18167,18079,18024,18012,18035,13786,411,5,57,17904,22577,-5080,-12956,2458,-15875,3301,0,0,0,1709861956.0306256,1,18227,18219,18138,18086,18117,18185,18243,18229,14372,297,96,31,7575,7962,12284,27428,-3299,-14040,7125,0,0,0,1709861956.0306256,2,12182,12414,12435,12191,11950,11950,12051,12115,31752,918,358,42,20985,-18800,-9563,11775,1332,16166,-3345,0,0,0,1709861956.0306256,3,0,0,0,0,0,0,0,0,0,0,0,0,0,0,0,0,Attribute not found,Attribute not found,Attribute not found,0,0,0,1709861956.0306256
1,31564,30392,30552,30096,31104,-148,-266,16731,-87,0,-3,1709861956.1119387,0,17834,17866,17829,17789,17703,17759,17857,17766,11331,200,164,139,17858,22453,-5236,-13172,1805,-15879,3164,0,0,0,1709861956.124128,1,18499,18824,18709,18624,18558,18574,18422,18296,17434,705,483,121,7647,8275,12164,27369,-3121,-14259,6618,0,0,0,1709861956.124128,2,12721,12674,12842,13080,13017,12749,12405,12455,36406,1143,503,204,21314,-18887,-8954,11522,-1162,16152,-47,0,0,0,1709861956.124128,3,0,0,0,0,0,0,0,0,0,0,0,0,0,0,0,0,Attribute not found,Attribute not found,Attribute not found,0,0,0,1709861956.124128
1,31716,27176,30756,30088,31120,-148,-266,16731,-87,0,-3,1709861956.2022176,0,17302,17157,17090,17090,17167,17215,17222,17244,6415,347,161,69,17776,22314,-5454,-13427,3580,-15783,3864,0,0,0,1709861956.214137,1,18409,18268,18233,18191,18206,18153,18132,18135,14655,330,267,162,7465,8109,12295,27410,-3332,-14829,6760,0,0,0,1709861956.214137,2,11816,11583,11654,11862,12162,12582,12117,12415,30654,1694,235,635,21341,-18962,-8885,11401,-2037,16469,-1684,0,0,0,1709861956.214137,3,0,0,0,0,0,0,0,0,0,0,0,0,0,0,0,0,Attribute not found,Attribute not found,Attribute not found,0,0,0,1709861956.214137
1,31716,26848,30728,30144,31096,-148,-266,16731,-87,0,-3,1709861956.2976105,0,17318,17342,17394,17432,17418,17395,17363,17330,7920,219,32,10,17792,22299,-5284,-13499,1278,-15819,3577,0,0,0,1709861956.3083358,1,18275,18185,18146,18110,18128,18226,18315,18323,14636,440,62,27,7487,8018,12453,27359,-4361,-14554,6400,0,0,0,1709861956.3083358,2,12248,12246,12253,12289,12321,12311,12217,12167,32515,218,141,59,21342,-18928,-8789,11530,-455,15851,-1178,0,0,0,1709861956.3083358,3,0,0,0,0,0,0,0,0,0,0,0,0,0,0,0,0,Attribute not found,Attribute not found,Attribute not found,0,0,0,1709861956.3083358
1,31560,30420,30632,30128,31064,-148,-266,16731,-87,0,-3,1709861956.395444,0,17691,17701,17736,17740,17769,17781,17797,17833,10976,195,116,106,17930,22408,-4866,-13291,50,-16418,3700,0,0,0,1709861956.4061205,1,17829,17832,17864,17848,17799,17774,17771,17763,11408,194,8,49,7534,7868,12661,27294,-5015,-14850,6687,0,0,0,1709861956.4061205,2,12154,12144,12141,12152,12166,12162,12153,12173,31709,40,32,21,21244,-18670,-9116,11872,3148,16476,-2962,0,0,0,1709861956.4061205,3,0,0,0,0,0,0,0,0,0,0,0,0,0,0,0,0,Attribute not found,Attribute not found,Attribute not found,0,0,0,1709861956.4061205
1,31512,30608,30248,30104,31092,-148,-266,16731,-87,0,-3,1709861956.4873881,0,18238,18259,18314,18363,18385,18419,18457,18517,15880,395,250,163,18020,22405,-4856,-13179,1070,-15888,2803,0,0,0,1709861956.4991481,1,17920,17847,17638,17439,17394,17384,17337,17306,9193,1048,592,316,7678,8052,12522,27264,-4794,-14310,7020,0,0,0,1709861956.4991481,2,12256,12266,12260,12221,12218,12217,12224,12247,32372,104,18,24,21144,-18789,-9062,11906,1626,16025,-2547,0,0,0,1709861956.4991481,3,0,0,0,0,0,0,0,0,0,0,0,0,0,0,0,0,Attribute not found,Attribute not found,Attribute not found,0,0,0,1709861956.4991481
1,31516,30832,26816,30320,31052,-148,-266,16731,-87,0,-3,1709861956.5739086,0,18566,18644,18672,18645,18580,18398,18300,18314,17047,783,192,58,17908,22381,-4920,-13346,1054,-15993,2524,0,0,0,1709861956.5864246,1,17368,17328,17246,17185,17250,17369,17344,17346,7364,314,168,55,7635,8219,12627,27178,-3484,-14580,7759,0,0,0,1709861956.5864246,2,12009,12061,12087,12100,12097,12103,12059,12032,31012,172,51,14,21276,-18821,-8795,11818,196,16697,-1688,0,0,0,1709861956.5864246,3,0,0,0,0,0,0,0,0,0,0,0,0,0,0,0,0,Attribute not found,Attribute not found,Attribute not found,0,0,0,1709861956.5864246
1,31516,30796,28420,30304,31012,-148,-266,16731,-87,0,-3,1709861956.6648362,0,18361,18336,18297,18294,18302,18304,18346,18364,15532,151,26,25,17855,22342,-4902,-13489,3214,-16241,3195,0,0,0,1709861956.6773841,1,17860,17916,17930,17916,17892,17859,17836,17842,11979,191,22,20,7610,8279,12750,27109,-3074,-14454,8171,0,0,0,1709861956.6773841,2,12014,12032,12044,12041,12026,12027,12039,12040,30727,13,48,14,21291,-18834,-8724,11825,-1068,17277,-2326,0,0,0,1709861956.6773841,3,0,0,0,0,0,0,0,0,0,0,0,0,0,0,0,0,Attribute not found,Attribute not found,Attribute not found,0,0,0,1709861956.6773841
1,31436,30676,29912,30140,31068,-148,-266,16731,-87,0,-3,1709861956.7549918,0,17994,17965,17952,17953,17935,17940,17942,17941,12550,77,36,52,17921,22324,-4828,-13458,2834,-16437,3011,0,0,0,1709861956.768022,1,18352,18416,18471,18471,18459,18461,18459,18455,16472,150,128,71,7673,8266,12784,27080,-2758,-14608,7486,0,0,0,1709861956.768022,2,12020,12015,11995,11985,11996,12010,12009,12024,30518,66,20,12,21176,-18857,-8832,11913,-1124,16268,-834,0,0,0,1709861956.768022,3,0,0,0,0,0,0,0,0,0,0,0,0,0,0,0,0,Attribute not found,Attribute not found,Attribute not found,0,0,0,1709861956.768022
